instructions,categoryA,categoryB,leftAttribute,rightAttribute,orStimulus,trial_type,stimulusText,stimulusImage,blocks.thisRepN,blocks.thisTrialN,blocks.thisN,blocks.thisIndex,trials.thisRepN,trials.thisTrialN,trials.thisN,trials.thisIndex,requiredResponse.keys,requiredResponse.corr,requiredResponse.rt,feedbackResponse.keys,feedbackResponse.corr,feedbackResponse.rt,participant,gender,age,frameRate,expName,date,
"Položte prosím svůj levý a pravý ukazováček na klávesu E, respektive I. Na obrazovce se začnou po jednom objevovat slova odpovídající kategoriím uvedeným v levém a pravém horním rohu. Pokud zobrazené slovo náleží ke kategorii uvedené vlevo, stiskněte klávesu E. Poku zobrazené slovo náleží ke kategorii uvedené vpravo, stiskněte klávesu I. Každé slovo patří jen do jedné kategorie. Pokud slovo zařadíte špatně, na obrazovce se objeví křížek - v takovém případě prosím chybu opravte a stiskněte odpovídající tlačítko. 

Čas je v této úloze velmi důležitý. ODPOVÍDEJTE PROSÍM CO NEJRYCHLEJI, ale zároveň co nejpřesněji. Když budete odpovídat pomalu nebo chybně, výsledky nebude možné analyzovat. Úloha zabere asi 5 minut.

Pro pokračování stiskněte klávesu E nebo I. ",Černoch,Běloch, , , ,2,text_trial_type_2,img_trial_type_2,0,0,0,0,0,0,0,1,i,1,2.2376869,None,0,,14,m,20,60.1899474361,IAT,2019_Nov_30_1203,
"Položte prosím svůj levý a pravý ukazováček na klávesu E, respektive I. Na obrazovce se začnou po jednom objevovat slova odpovídající kategoriím uvedeným v levém a pravém horním rohu. Pokud zobrazené slovo náleží ke kategorii uvedené vlevo, stiskněte klávesu E. Poku zobrazené slovo náleží ke kategorii uvedené vpravo, stiskněte klávesu I. Každé slovo patří jen do jedné kategorie. Pokud slovo zařadíte špatně, na obrazovce se objeví křížek - v takovém případě prosím chybu opravte a stiskněte odpovídající tlačítko. 

Čas je v této úloze velmi důležitý. ODPOVÍDEJTE PROSÍM CO NEJRYCHLEJI, ale zároveň co nejpřesněji. Když budete odpovídat pomalu nebo chybně, výsledky nebude možné analyzovat. Úloha zabere asi 5 minut.

Pro pokračování stiskněte klávesu E nebo I. ",Černoch,Běloch, , , ,1,text_trial_type_1,img_trial_type_1,0,0,0,0,0,1,1,0,e,1,1.5329818,None,0,,14,m,20,60.1899474361,IAT,2019_Nov_30_1203,
"Položte prosím svůj levý a pravý ukazováček na klávesu E, respektive I. Na obrazovce se začnou po jednom objevovat slova odpovídající kategoriím uvedeným v levém a pravém horním rohu. Pokud zobrazené slovo náleží ke kategorii uvedené vlevo, stiskněte klávesu E. Poku zobrazené slovo náleží ke kategorii uvedené vpravo, stiskněte klávesu I. Každé slovo patří jen do jedné kategorie. Pokud slovo zařadíte špatně, na obrazovce se objeví křížek - v takovém případě prosím chybu opravte a stiskněte odpovídající tlačítko. 

Čas je v této úloze velmi důležitý. ODPOVÍDEJTE PROSÍM CO NEJRYCHLEJI, ale zároveň co nejpřesněji. Když budete odpovídat pomalu nebo chybně, výsledky nebude možné analyzovat. Úloha zabere asi 5 minut.

Pro pokračování stiskněte klávesu E nebo I. ",Černoch,Běloch, , , ,2,text_trial_type_2,img_trial_type_2,0,0,0,0,1,0,2,1,i,1,1.1489738,None,0,,14,m,20,60.1899474361,IAT,2019_Nov_30_1203,
"Položte prosím svůj levý a pravý ukazováček na klávesu E, respektive I. Na obrazovce se začnou po jednom objevovat slova odpovídající kategoriím uvedeným v levém a pravém horním rohu. Pokud zobrazené slovo náleží ke kategorii uvedené vlevo, stiskněte klávesu E. Poku zobrazené slovo náleží ke kategorii uvedené vpravo, stiskněte klávesu I. Každé slovo patří jen do jedné kategorie. Pokud slovo zařadíte špatně, na obrazovce se objeví křížek - v takovém případě prosím chybu opravte a stiskněte odpovídající tlačítko. 

Čas je v této úloze velmi důležitý. ODPOVÍDEJTE PROSÍM CO NEJRYCHLEJI, ale zároveň co nejpřesněji. Když budete odpovídat pomalu nebo chybně, výsledky nebude možné analyzovat. Úloha zabere asi 5 minut.

Pro pokračování stiskněte klávesu E nebo I. ",Černoch,Běloch, , , ,1,text_trial_type_1,img_trial_type_1,0,0,0,0,1,1,3,0,e,1,1.2332926,None,0,,14,m,20,60.1899474361,IAT,2019_Nov_30_1203,
"Položte prosím svůj levý a pravý ukazováček na klávesu E, respektive I. Na obrazovce se začnou po jednom objevovat slova odpovídající kategoriím uvedeným v levém a pravém horním rohu. Pokud zobrazené slovo náleží ke kategorii uvedené vlevo, stiskněte klávesu E. Poku zobrazené slovo náleží ke kategorii uvedené vpravo, stiskněte klávesu I. Každé slovo patří jen do jedné kategorie. Pokud slovo zařadíte špatně, na obrazovce se objeví křížek - v takovém případě prosím chybu opravte a stiskněte odpovídající tlačítko. 

Čas je v této úloze velmi důležitý. ODPOVÍDEJTE PROSÍM CO NEJRYCHLEJI, ale zároveň co nejpřesněji. Když budete odpovídat pomalu nebo chybně, výsledky nebude možné analyzovat. Úloha zabere asi 5 minut.

Pro pokračování stiskněte klávesu E nebo I. ",Černoch,Běloch, , , ,1,text_trial_type_1,img_trial_type_1,0,0,0,0,2,0,4,0,e,1,1.3672344,None,0,,14,m,20,60.1899474361,IAT,2019_Nov_30_1203,
"Položte prosím svůj levý a pravý ukazováček na klávesu E, respektive I. Na obrazovce se začnou po jednom objevovat slova odpovídající kategoriím uvedeným v levém a pravém horním rohu. Pokud zobrazené slovo náleží ke kategorii uvedené vlevo, stiskněte klávesu E. Poku zobrazené slovo náleží ke kategorii uvedené vpravo, stiskněte klávesu I. Každé slovo patří jen do jedné kategorie. Pokud slovo zařadíte špatně, na obrazovce se objeví křížek - v takovém případě prosím chybu opravte a stiskněte odpovídající tlačítko. 

Čas je v této úloze velmi důležitý. ODPOVÍDEJTE PROSÍM CO NEJRYCHLEJI, ale zároveň co nejpřesněji. Když budete odpovídat pomalu nebo chybně, výsledky nebude možné analyzovat. Úloha zabere asi 5 minut.

Pro pokračování stiskněte klávesu E nebo I. ",Černoch,Běloch, , , ,1,text_trial_type_1,img_trial_type_1,0,0,0,0,2,1,5,0,e,1,1.5159489,None,0,,14,m,20,60.1899474361,IAT,2019_Nov_30_1203,
"Položte prosím svůj levý a pravý ukazováček na klávesu E, respektive I. Na obrazovce se začnou po jednom objevovat slova odpovídající kategoriím uvedeným v levém a pravém horním rohu. Pokud zobrazené slovo náleží ke kategorii uvedené vlevo, stiskněte klávesu E. Poku zobrazené slovo náleží ke kategorii uvedené vpravo, stiskněte klávesu I. Každé slovo patří jen do jedné kategorie. Pokud slovo zařadíte špatně, na obrazovce se objeví křížek - v takovém případě prosím chybu opravte a stiskněte odpovídající tlačítko. 

Čas je v této úloze velmi důležitý. ODPOVÍDEJTE PROSÍM CO NEJRYCHLEJI, ale zároveň co nejpřesněji. Když budete odpovídat pomalu nebo chybně, výsledky nebude možné analyzovat. Úloha zabere asi 5 minut.

Pro pokračování stiskněte klávesu E nebo I. ",Černoch,Běloch, , , ,1,text_trial_type_1,img_trial_type_1,0,0,0,0,3,0,6,0,e,1,1.3170974,None,0,,14,m,20,60.1899474361,IAT,2019_Nov_30_1203,
"Položte prosím svůj levý a pravý ukazováček na klávesu E, respektive I. Na obrazovce se začnou po jednom objevovat slova odpovídající kategoriím uvedeným v levém a pravém horním rohu. Pokud zobrazené slovo náleží ke kategorii uvedené vlevo, stiskněte klávesu E. Poku zobrazené slovo náleží ke kategorii uvedené vpravo, stiskněte klávesu I. Každé slovo patří jen do jedné kategorie. Pokud slovo zařadíte špatně, na obrazovce se objeví křížek - v takovém případě prosím chybu opravte a stiskněte odpovídající tlačítko. 

Čas je v této úloze velmi důležitý. ODPOVÍDEJTE PROSÍM CO NEJRYCHLEJI, ale zároveň co nejpřesněji. Když budete odpovídat pomalu nebo chybně, výsledky nebude možné analyzovat. Úloha zabere asi 5 minut.

Pro pokračování stiskněte klávesu E nebo I. ",Černoch,Běloch, , , ,2,text_trial_type_2,img_trial_type_2,0,0,0,0,3,1,7,1,i,1,0.949679,None,0,,14,m,20,60.1899474361,IAT,2019_Nov_30_1203,
"Položte prosím svůj levý a pravý ukazováček na klávesu E, respektive I. Na obrazovce se začnou po jednom objevovat slova odpovídající kategoriím uvedeným v levém a pravém horním rohu. Pokud zobrazené slovo náleží ke kategorii uvedené vlevo, stiskněte klávesu E. Poku zobrazené slovo náleží ke kategorii uvedené vpravo, stiskněte klávesu I. Každé slovo patří jen do jedné kategorie. Pokud slovo zařadíte špatně, na obrazovce se objeví křížek - v takovém případě prosím chybu opravte a stiskněte odpovídající tlačítko. 

Čas je v této úloze velmi důležitý. ODPOVÍDEJTE PROSÍM CO NEJRYCHLEJI, ale zároveň co nejpřesněji. Když budete odpovídat pomalu nebo chybně, výsledky nebude možné analyzovat. Úloha zabere asi 5 minut.

Pro pokračování stiskněte klávesu E nebo I. ",Černoch,Běloch, , , ,2,text_trial_type_2,img_trial_type_2,0,0,0,0,4,0,8,1,i,1,1.1166432,None,0,,14,m,20,60.1899474361,IAT,2019_Nov_30_1203,
"Položte prosím svůj levý a pravý ukazováček na klávesu E, respektive I. Na obrazovce se začnou po jednom objevovat slova odpovídající kategoriím uvedeným v levém a pravém horním rohu. Pokud zobrazené slovo náleží ke kategorii uvedené vlevo, stiskněte klávesu E. Poku zobrazené slovo náleží ke kategorii uvedené vpravo, stiskněte klávesu I. Každé slovo patří jen do jedné kategorie. Pokud slovo zařadíte špatně, na obrazovce se objeví křížek - v takovém případě prosím chybu opravte a stiskněte odpovídající tlačítko. 

Čas je v této úloze velmi důležitý. ODPOVÍDEJTE PROSÍM CO NEJRYCHLEJI, ale zároveň co nejpřesněji. Když budete odpovídat pomalu nebo chybně, výsledky nebude možné analyzovat. Úloha zabere asi 5 minut.

Pro pokračování stiskněte klávesu E nebo I. ",Černoch,Běloch, , , ,1,text_trial_type_1,img_trial_type_1,0,0,0,0,4,1,9,0,e,1,1.0997096,None,0,,14,m,20,60.1899474361,IAT,2019_Nov_30_1203,
"Položte prosím svůj levý a pravý ukazováček na klávesu E, respektive I. Na obrazovce se začnou po jednom objevovat slova odpovídající kategoriím uvedeným v levém a pravém horním rohu. Pokud zobrazené slovo náleží ke kategorii uvedené vlevo, stiskněte klávesu E. Poku zobrazené slovo náleží ke kategorii uvedené vpravo, stiskněte klávesu I. Každé slovo patří jen do jedné kategorie. Pokud slovo zařadíte špatně, na obrazovce se objeví křížek - v takovém případě prosím chybu opravte a stiskněte odpovídající tlačítko. 

Čas je v této úloze velmi důležitý. ODPOVÍDEJTE PROSÍM CO NEJRYCHLEJI, ale zároveň co nejpřesněji. Když budete odpovídat pomalu nebo chybně, výsledky nebude možné analyzovat. Úloha zabere asi 5 minut.

Pro pokračování stiskněte klávesu E nebo I. ",Černoch,Běloch, , , ,1,text_trial_type_1,img_trial_type_1,0,0,0,0,5,0,10,0,e,1,0.9165994,None,0,,14,m,20,60.1899474361,IAT,2019_Nov_30_1203,
"Položte prosím svůj levý a pravý ukazováček na klávesu E, respektive I. Na obrazovce se začnou po jednom objevovat slova odpovídající kategoriím uvedeným v levém a pravém horním rohu. Pokud zobrazené slovo náleží ke kategorii uvedené vlevo, stiskněte klávesu E. Poku zobrazené slovo náleží ke kategorii uvedené vpravo, stiskněte klávesu I. Každé slovo patří jen do jedné kategorie. Pokud slovo zařadíte špatně, na obrazovce se objeví křížek - v takovém případě prosím chybu opravte a stiskněte odpovídající tlačítko. 

Čas je v této úloze velmi důležitý. ODPOVÍDEJTE PROSÍM CO NEJRYCHLEJI, ale zároveň co nejpřesněji. Když budete odpovídat pomalu nebo chybně, výsledky nebude možné analyzovat. Úloha zabere asi 5 minut.

Pro pokračování stiskněte klávesu E nebo I. ",Černoch,Běloch, , , ,2,text_trial_type_2,img_trial_type_2,0,0,0,0,5,1,11,1,i,1,0.9331192,None,0,,14,m,20,60.1899474361,IAT,2019_Nov_30_1203,
"Položte prosím svůj levý a pravý ukazováček na klávesu E, respektive I. Na obrazovce se začnou po jednom objevovat slova odpovídající kategoriím uvedeným v levém a pravém horním rohu. Pokud zobrazené slovo náleží ke kategorii uvedené vlevo, stiskněte klávesu E. Poku zobrazené slovo náleží ke kategorii uvedené vpravo, stiskněte klávesu I. Každé slovo patří jen do jedné kategorie. Pokud slovo zařadíte špatně, na obrazovce se objeví křížek - v takovém případě prosím chybu opravte a stiskněte odpovídající tlačítko. 

Čas je v této úloze velmi důležitý. ODPOVÍDEJTE PROSÍM CO NEJRYCHLEJI, ale zároveň co nejpřesněji. Když budete odpovídat pomalu nebo chybně, výsledky nebude možné analyzovat. Úloha zabere asi 5 minut.

Pro pokračování stiskněte klávesu E nebo I. ",Černoch,Běloch, , , ,1,text_trial_type_1,img_trial_type_1,0,0,0,0,6,0,12,0,e,1,0.9656414,None,0,,14,m,20,60.1899474361,IAT,2019_Nov_30_1203,
"Položte prosím svůj levý a pravý ukazováček na klávesu E, respektive I. Na obrazovce se začnou po jednom objevovat slova odpovídající kategoriím uvedeným v levém a pravém horním rohu. Pokud zobrazené slovo náleží ke kategorii uvedené vlevo, stiskněte klávesu E. Poku zobrazené slovo náleží ke kategorii uvedené vpravo, stiskněte klávesu I. Každé slovo patří jen do jedné kategorie. Pokud slovo zařadíte špatně, na obrazovce se objeví křížek - v takovém případě prosím chybu opravte a stiskněte odpovídající tlačítko. 

Čas je v této úloze velmi důležitý. ODPOVÍDEJTE PROSÍM CO NEJRYCHLEJI, ale zároveň co nejpřesněji. Když budete odpovídat pomalu nebo chybně, výsledky nebude možné analyzovat. Úloha zabere asi 5 minut.

Pro pokračování stiskněte klávesu E nebo I. ",Černoch,Běloch, , , ,2,text_trial_type_2,img_trial_type_2,0,0,0,0,6,1,13,1,i,1,0.8666124,None,0,,14,m,20,60.1899474361,IAT,2019_Nov_30_1203,
"Položte prosím svůj levý a pravý ukazováček na klávesu E, respektive I. Na obrazovce se začnou po jednom objevovat slova odpovídající kategoriím uvedeným v levém a pravém horním rohu. Pokud zobrazené slovo náleží ke kategorii uvedené vlevo, stiskněte klávesu E. Poku zobrazené slovo náleží ke kategorii uvedené vpravo, stiskněte klávesu I. Každé slovo patří jen do jedné kategorie. Pokud slovo zařadíte špatně, na obrazovce se objeví křížek - v takovém případě prosím chybu opravte a stiskněte odpovídající tlačítko. 

Čas je v této úloze velmi důležitý. ODPOVÍDEJTE PROSÍM CO NEJRYCHLEJI, ale zároveň co nejpřesněji. Když budete odpovídat pomalu nebo chybně, výsledky nebude možné analyzovat. Úloha zabere asi 5 minut.

Pro pokračování stiskněte klávesu E nebo I. ",Černoch,Běloch, , , ,2,text_trial_type_2,img_trial_type_2,0,0,0,0,7,0,14,1,i,1,0.9678098,None,0,,14,m,20,60.1899474361,IAT,2019_Nov_30_1203,
"Položte prosím svůj levý a pravý ukazováček na klávesu E, respektive I. Na obrazovce se začnou po jednom objevovat slova odpovídající kategoriím uvedeným v levém a pravém horním rohu. Pokud zobrazené slovo náleží ke kategorii uvedené vlevo, stiskněte klávesu E. Poku zobrazené slovo náleží ke kategorii uvedené vpravo, stiskněte klávesu I. Každé slovo patří jen do jedné kategorie. Pokud slovo zařadíte špatně, na obrazovce se objeví křížek - v takovém případě prosím chybu opravte a stiskněte odpovídající tlačítko. 

Čas je v této úloze velmi důležitý. ODPOVÍDEJTE PROSÍM CO NEJRYCHLEJI, ale zároveň co nejpřesněji. Když budete odpovídat pomalu nebo chybně, výsledky nebude možné analyzovat. Úloha zabere asi 5 minut.

Pro pokračování stiskněte klávesu E nebo I. ",Černoch,Běloch, , , ,2,text_trial_type_2,img_trial_type_2,0,0,0,0,7,1,15,1,i,1,0.7996143,None,0,,14,m,20,60.1899474361,IAT,2019_Nov_30_1203,
"Položte prosím svůj levý a pravý ukazováček na klávesu E, respektive I. Na obrazovce se začnou po jednom objevovat slova odpovídající kategoriím uvedeným v levém a pravém horním rohu. Pokud zobrazené slovo náleží ke kategorii uvedené vlevo, stiskněte klávesu E. Poku zobrazené slovo náleží ke kategorii uvedené vpravo, stiskněte klávesu I. Každé slovo patří jen do jedné kategorie. Pokud slovo zařadíte špatně, na obrazovce se objeví křížek - v takovém případě prosím chybu opravte a stiskněte odpovídající tlačítko. 

Čas je v této úloze velmi důležitý. ODPOVÍDEJTE PROSÍM CO NEJRYCHLEJI, ale zároveň co nejpřesněji. Když budete odpovídat pomalu nebo chybně, výsledky nebude možné analyzovat. Úloha zabere asi 5 minut.

Pro pokračování stiskněte klávesu E nebo I. ",Černoch,Běloch, , , ,1,text_trial_type_1,img_trial_type_1,0,0,0,0,8,0,16,0,e,1,0.7670773,None,0,,14,m,20,60.1899474361,IAT,2019_Nov_30_1203,
"Položte prosím svůj levý a pravý ukazováček na klávesu E, respektive I. Na obrazovce se začnou po jednom objevovat slova odpovídající kategoriím uvedeným v levém a pravém horním rohu. Pokud zobrazené slovo náleží ke kategorii uvedené vlevo, stiskněte klávesu E. Poku zobrazené slovo náleží ke kategorii uvedené vpravo, stiskněte klávesu I. Každé slovo patří jen do jedné kategorie. Pokud slovo zařadíte špatně, na obrazovce se objeví křížek - v takovém případě prosím chybu opravte a stiskněte odpovídající tlačítko. 

Čas je v této úloze velmi důležitý. ODPOVÍDEJTE PROSÍM CO NEJRYCHLEJI, ale zároveň co nejpřesněji. Když budete odpovídat pomalu nebo chybně, výsledky nebude možné analyzovat. Úloha zabere asi 5 minut.

Pro pokračování stiskněte klávesu E nebo I. ",Černoch,Běloch, , , ,2,text_trial_type_2,img_trial_type_2,0,0,0,0,8,1,17,1,i,1,0.7006479,None,0,,14,m,20,60.1899474361,IAT,2019_Nov_30_1203,
"Položte prosím svůj levý a pravý ukazováček na klávesu E, respektive I. Na obrazovce se začnou po jednom objevovat slova odpovídající kategoriím uvedeným v levém a pravém horním rohu. Pokud zobrazené slovo náleží ke kategorii uvedené vlevo, stiskněte klávesu E. Poku zobrazené slovo náleží ke kategorii uvedené vpravo, stiskněte klávesu I. Každé slovo patří jen do jedné kategorie. Pokud slovo zařadíte špatně, na obrazovce se objeví křížek - v takovém případě prosím chybu opravte a stiskněte odpovídající tlačítko. 

Čas je v této úloze velmi důležitý. ODPOVÍDEJTE PROSÍM CO NEJRYCHLEJI, ale zároveň co nejpřesněji. Když budete odpovídat pomalu nebo chybně, výsledky nebude možné analyzovat. Úloha zabere asi 5 minut.

Pro pokračování stiskněte klávesu E nebo I. ",Černoch,Běloch, , , ,1,text_trial_type_1,img_trial_type_1,0,0,0,0,9,0,18,0,e,1,0.7339115,None,0,,14,m,20,60.1899474361,IAT,2019_Nov_30_1203,
"Položte prosím svůj levý a pravý ukazováček na klávesu E, respektive I. Na obrazovce se začnou po jednom objevovat slova odpovídající kategoriím uvedeným v levém a pravém horním rohu. Pokud zobrazené slovo náleží ke kategorii uvedené vlevo, stiskněte klávesu E. Poku zobrazené slovo náleží ke kategorii uvedené vpravo, stiskněte klávesu I. Každé slovo patří jen do jedné kategorie. Pokud slovo zařadíte špatně, na obrazovce se objeví křížek - v takovém případě prosím chybu opravte a stiskněte odpovídající tlačítko. 

Čas je v této úloze velmi důležitý. ODPOVÍDEJTE PROSÍM CO NEJRYCHLEJI, ale zároveň co nejpřesněji. Když budete odpovídat pomalu nebo chybně, výsledky nebude možné analyzovat. Úloha zabere asi 5 minut.

Pro pokračování stiskněte klávesu E nebo I. ",Černoch,Běloch, , , ,2,text_trial_type_2,img_trial_type_2,0,0,0,0,9,1,19,1,i,1,0.6331104,None,0,,14,m,20,60.1899474361,IAT,2019_Nov_30_1203,
"Kategorie uvedené nahoře i zobrazované položky se změnily. Pravidla však zůstávají stejná: 

Pokud zobrazená položka náleží ke kategorii uvedené vlevo, stiskněte klávesu E. Poku zobrazená položka náleží ke kategorii uvedené vpravo, stiskněte klávesu I. Každá položka patří jen do jedné kategorie. Pokud položku zařadíte nesprávně, na obrazovce se objeví křížek - v takovém případě prosím chybu opravte a stiskněte odpovídající tlačítko. 
Pro pokračování zmáčkněte klávesu E nebo I. ", , ,Negativní,Pozitivní,None,3,text_trial_type_3,img_trial_type_3,0,1,1,1,0,0,0,0,i,1,2.1178589,None,0,,14,m,20,60.1899474361,IAT,2019_Nov_30_1203,
"Kategorie uvedené nahoře i zobrazované položky se změnily. Pravidla však zůstávají stejná: 

Pokud zobrazená položka náleží ke kategorii uvedené vlevo, stiskněte klávesu E. Poku zobrazená položka náleží ke kategorii uvedené vpravo, stiskněte klávesu I. Každá položka patří jen do jedné kategorie. Pokud položku zařadíte nesprávně, na obrazovce se objeví křížek - v takovém případě prosím chybu opravte a stiskněte odpovídající tlačítko. 
Pro pokračování zmáčkněte klávesu E nebo I. ", , ,Negativní,Pozitivní,None,3,text_trial_type_3,img_trial_type_3,0,1,1,1,0,1,1,0,i,1,0.8996729,None,0,,14,m,20,60.1899474361,IAT,2019_Nov_30_1203,
"Kategorie uvedené nahoře i zobrazované položky se změnily. Pravidla však zůstávají stejná: 

Pokud zobrazená položka náleží ke kategorii uvedené vlevo, stiskněte klávesu E. Poku zobrazená položka náleží ke kategorii uvedené vpravo, stiskněte klávesu I. Každá položka patří jen do jedné kategorie. Pokud položku zařadíte nesprávně, na obrazovce se objeví křížek - v takovém případě prosím chybu opravte a stiskněte odpovídající tlačítko. 
Pro pokračování zmáčkněte klávesu E nebo I. ", , ,Negativní,Pozitivní,None,4,text_trial_type_4,img_trial_type_4,0,1,1,1,1,0,2,1,e,1,0.8177336,None,0,,14,m,20,60.1899474361,IAT,2019_Nov_30_1203,
"Kategorie uvedené nahoře i zobrazované položky se změnily. Pravidla však zůstávají stejná: 

Pokud zobrazená položka náleží ke kategorii uvedené vlevo, stiskněte klávesu E. Poku zobrazená položka náleží ke kategorii uvedené vpravo, stiskněte klávesu I. Každá položka patří jen do jedné kategorie. Pokud položku zařadíte nesprávně, na obrazovce se objeví křížek - v takovém případě prosím chybu opravte a stiskněte odpovídající tlačítko. 
Pro pokračování zmáčkněte klávesu E nebo I. ", , ,Negativní,Pozitivní,None,4,text_trial_type_4,img_trial_type_4,0,1,1,1,1,1,3,1,e,1,1.3164178,None,0,,14,m,20,60.1899474361,IAT,2019_Nov_30_1203,
"Kategorie uvedené nahoře i zobrazované položky se změnily. Pravidla však zůstávají stejná: 

Pokud zobrazená položka náleží ke kategorii uvedené vlevo, stiskněte klávesu E. Poku zobrazená položka náleží ke kategorii uvedené vpravo, stiskněte klávesu I. Každá položka patří jen do jedné kategorie. Pokud položku zařadíte nesprávně, na obrazovce se objeví křížek - v takovém případě prosím chybu opravte a stiskněte odpovídající tlačítko. 
Pro pokračování zmáčkněte klávesu E nebo I. ", , ,Negativní,Pozitivní,None,3,text_trial_type_3,img_trial_type_3,0,1,1,1,2,0,4,0,i,1,0.7666401,None,0,,14,m,20,60.1899474361,IAT,2019_Nov_30_1203,
"Kategorie uvedené nahoře i zobrazované položky se změnily. Pravidla však zůstávají stejná: 

Pokud zobrazená položka náleží ke kategorii uvedené vlevo, stiskněte klávesu E. Poku zobrazená položka náleží ke kategorii uvedené vpravo, stiskněte klávesu I. Každá položka patří jen do jedné kategorie. Pokud položku zařadíte nesprávně, na obrazovce se objeví křížek - v takovém případě prosím chybu opravte a stiskněte odpovídající tlačítko. 
Pro pokračování zmáčkněte klávesu E nebo I. ", , ,Negativní,Pozitivní,None,4,text_trial_type_4,img_trial_type_4,0,1,1,1,2,1,5,1,e,1,0.9669589,None,0,,14,m,20,60.1899474361,IAT,2019_Nov_30_1203,
"Kategorie uvedené nahoře i zobrazované položky se změnily. Pravidla však zůstávají stejná: 

Pokud zobrazená položka náleží ke kategorii uvedené vlevo, stiskněte klávesu E. Poku zobrazená položka náleží ke kategorii uvedené vpravo, stiskněte klávesu I. Každá položka patří jen do jedné kategorie. Pokud položku zařadíte nesprávně, na obrazovce se objeví křížek - v takovém případě prosím chybu opravte a stiskněte odpovídající tlačítko. 
Pro pokračování zmáčkněte klávesu E nebo I. ", , ,Negativní,Pozitivní,None,4,text_trial_type_4,img_trial_type_4,0,1,1,1,3,0,6,1,e,1,1.0323405,None,0,,14,m,20,60.1899474361,IAT,2019_Nov_30_1203,
"Kategorie uvedené nahoře i zobrazované položky se změnily. Pravidla však zůstávají stejná: 

Pokud zobrazená položka náleží ke kategorii uvedené vlevo, stiskněte klávesu E. Poku zobrazená položka náleží ke kategorii uvedené vpravo, stiskněte klávesu I. Každá položka patří jen do jedné kategorie. Pokud položku zařadíte nesprávně, na obrazovce se objeví křížek - v takovém případě prosím chybu opravte a stiskněte odpovídající tlačítko. 
Pro pokračování zmáčkněte klávesu E nebo I. ", , ,Negativní,Pozitivní,None,4,text_trial_type_4,img_trial_type_4,0,1,1,1,3,1,7,1,e,1,0.8003073,None,0,,14,m,20,60.1899474361,IAT,2019_Nov_30_1203,
"Kategorie uvedené nahoře i zobrazované položky se změnily. Pravidla však zůstávají stejná: 

Pokud zobrazená položka náleží ke kategorii uvedené vlevo, stiskněte klávesu E. Poku zobrazená položka náleží ke kategorii uvedené vpravo, stiskněte klávesu I. Každá položka patří jen do jedné kategorie. Pokud položku zařadíte nesprávně, na obrazovce se objeví křížek - v takovém případě prosím chybu opravte a stiskněte odpovídající tlačítko. 
Pro pokračování zmáčkněte klávesu E nebo I. ", , ,Negativní,Pozitivní,None,3,text_trial_type_3,img_trial_type_3,0,1,1,1,4,0,8,0,i,1,0.7671444,None,0,,14,m,20,60.1899474361,IAT,2019_Nov_30_1203,
"Kategorie uvedené nahoře i zobrazované položky se změnily. Pravidla však zůstávají stejná: 

Pokud zobrazená položka náleží ke kategorii uvedené vlevo, stiskněte klávesu E. Poku zobrazená položka náleží ke kategorii uvedené vpravo, stiskněte klávesu I. Každá položka patří jen do jedné kategorie. Pokud položku zařadíte nesprávně, na obrazovce se objeví křížek - v takovém případě prosím chybu opravte a stiskněte odpovídající tlačítko. 
Pro pokračování zmáčkněte klávesu E nebo I. ", , ,Negativní,Pozitivní,None,4,text_trial_type_4,img_trial_type_4,0,1,1,1,4,1,9,1,e,1,0.9666774,None,0,,14,m,20,60.1899474361,IAT,2019_Nov_30_1203,
"Kategorie uvedené nahoře i zobrazované položky se změnily. Pravidla však zůstávají stejná: 

Pokud zobrazená položka náleží ke kategorii uvedené vlevo, stiskněte klávesu E. Poku zobrazená položka náleží ke kategorii uvedené vpravo, stiskněte klávesu I. Každá položka patří jen do jedné kategorie. Pokud položku zařadíte nesprávně, na obrazovce se objeví křížek - v takovém případě prosím chybu opravte a stiskněte odpovídající tlačítko. 
Pro pokračování zmáčkněte klávesu E nebo I. ", , ,Negativní,Pozitivní,None,3,text_trial_type_3,img_trial_type_3,0,1,1,1,5,0,10,0,i,1,0.6995836,None,0,,14,m,20,60.1899474361,IAT,2019_Nov_30_1203,
"Kategorie uvedené nahoře i zobrazované položky se změnily. Pravidla však zůstávají stejná: 

Pokud zobrazená položka náleží ke kategorii uvedené vlevo, stiskněte klávesu E. Poku zobrazená položka náleží ke kategorii uvedené vpravo, stiskněte klávesu I. Každá položka patří jen do jedné kategorie. Pokud položku zařadíte nesprávně, na obrazovce se objeví křížek - v takovém případě prosím chybu opravte a stiskněte odpovídající tlačítko. 
Pro pokračování zmáčkněte klávesu E nebo I. ", , ,Negativní,Pozitivní,None,3,text_trial_type_3,img_trial_type_3,0,1,1,1,5,1,11,0,i,1,0.650148,None,0,,14,m,20,60.1899474361,IAT,2019_Nov_30_1203,
"Kategorie uvedené nahoře i zobrazované položky se změnily. Pravidla však zůstávají stejná: 

Pokud zobrazená položka náleží ke kategorii uvedené vlevo, stiskněte klávesu E. Poku zobrazená položka náleží ke kategorii uvedené vpravo, stiskněte klávesu I. Každá položka patří jen do jedné kategorie. Pokud položku zařadíte nesprávně, na obrazovce se objeví křížek - v takovém případě prosím chybu opravte a stiskněte odpovídající tlačítko. 
Pro pokračování zmáčkněte klávesu E nebo I. ", , ,Negativní,Pozitivní,None,4,text_trial_type_4,img_trial_type_4,0,1,1,1,6,0,12,1,e,1,0.66664,None,0,,14,m,20,60.1899474361,IAT,2019_Nov_30_1203,
"Kategorie uvedené nahoře i zobrazované položky se změnily. Pravidla však zůstávají stejná: 

Pokud zobrazená položka náleží ke kategorii uvedené vlevo, stiskněte klávesu E. Poku zobrazená položka náleží ke kategorii uvedené vpravo, stiskněte klávesu I. Každá položka patří jen do jedné kategorie. Pokud položku zařadíte nesprávně, na obrazovce se objeví křížek - v takovém případě prosím chybu opravte a stiskněte odpovídající tlačítko. 
Pro pokračování zmáčkněte klávesu E nebo I. ", , ,Negativní,Pozitivní,None,3,text_trial_type_3,img_trial_type_3,0,1,1,1,6,1,13,0,i,1,0.8500166,None,0,,14,m,20,60.1899474361,IAT,2019_Nov_30_1203,
"Kategorie uvedené nahoře i zobrazované položky se změnily. Pravidla však zůstávají stejná: 

Pokud zobrazená položka náleží ke kategorii uvedené vlevo, stiskněte klávesu E. Poku zobrazená položka náleží ke kategorii uvedené vpravo, stiskněte klávesu I. Každá položka patří jen do jedné kategorie. Pokud položku zařadíte nesprávně, na obrazovce se objeví křížek - v takovém případě prosím chybu opravte a stiskněte odpovídající tlačítko. 
Pro pokračování zmáčkněte klávesu E nebo I. ", , ,Negativní,Pozitivní,None,3,text_trial_type_3,img_trial_type_3,0,1,1,1,7,0,14,0,i,1,0.6164634,None,0,,14,m,20,60.1899474361,IAT,2019_Nov_30_1203,
"Kategorie uvedené nahoře i zobrazované položky se změnily. Pravidla však zůstávají stejná: 

Pokud zobrazená položka náleží ke kategorii uvedené vlevo, stiskněte klávesu E. Poku zobrazená položka náleží ke kategorii uvedené vpravo, stiskněte klávesu I. Každá položka patří jen do jedné kategorie. Pokud položku zařadíte nesprávně, na obrazovce se objeví křížek - v takovém případě prosím chybu opravte a stiskněte odpovídající tlačítko. 
Pro pokračování zmáčkněte klávesu E nebo I. ", , ,Negativní,Pozitivní,None,4,text_trial_type_4,img_trial_type_4,0,1,1,1,7,1,15,1,e,1,0.7830684,None,0,,14,m,20,60.1899474361,IAT,2019_Nov_30_1203,
"Kategorie uvedené nahoře i zobrazované položky se změnily. Pravidla však zůstávají stejná: 

Pokud zobrazená položka náleží ke kategorii uvedené vlevo, stiskněte klávesu E. Poku zobrazená položka náleží ke kategorii uvedené vpravo, stiskněte klávesu I. Každá položka patří jen do jedné kategorie. Pokud položku zařadíte nesprávně, na obrazovce se objeví křížek - v takovém případě prosím chybu opravte a stiskněte odpovídající tlačítko. 
Pro pokračování zmáčkněte klávesu E nebo I. ", , ,Negativní,Pozitivní,None,4,text_trial_type_4,img_trial_type_4,0,1,1,1,8,0,16,1,e,1,0.7673473,None,0,,14,m,20,60.1899474361,IAT,2019_Nov_30_1203,
"Kategorie uvedené nahoře i zobrazované položky se změnily. Pravidla však zůstávají stejná: 

Pokud zobrazená položka náleží ke kategorii uvedené vlevo, stiskněte klávesu E. Poku zobrazená položka náleží ke kategorii uvedené vpravo, stiskněte klávesu I. Každá položka patří jen do jedné kategorie. Pokud položku zařadíte nesprávně, na obrazovce se objeví křížek - v takovém případě prosím chybu opravte a stiskněte odpovídající tlačítko. 
Pro pokračování zmáčkněte klávesu E nebo I. ", , ,Negativní,Pozitivní,None,3,text_trial_type_3,img_trial_type_3,0,1,1,1,8,1,17,0,i,1,0.5497675,None,0,,14,m,20,60.1899474361,IAT,2019_Nov_30_1203,
"Kategorie uvedené nahoře i zobrazované položky se změnily. Pravidla však zůstávají stejná: 

Pokud zobrazená položka náleží ke kategorii uvedené vlevo, stiskněte klávesu E. Poku zobrazená položka náleží ke kategorii uvedené vpravo, stiskněte klávesu I. Každá položka patří jen do jedné kategorie. Pokud položku zařadíte nesprávně, na obrazovce se objeví křížek - v takovém případě prosím chybu opravte a stiskněte odpovídající tlačítko. 
Pro pokračování zmáčkněte klávesu E nebo I. ", , ,Negativní,Pozitivní,None,4,text_trial_type_4,img_trial_type_4,0,1,1,1,9,0,18,1,e,1,1.5695984,i,1,0.1879687,14,m,20,60.1899474361,IAT,2019_Nov_30_1203,
"Kategorie uvedené nahoře i zobrazované položky se změnily. Pravidla však zůstávají stejná: 

Pokud zobrazená položka náleží ke kategorii uvedené vlevo, stiskněte klávesu E. Poku zobrazená položka náleží ke kategorii uvedené vpravo, stiskněte klávesu I. Každá položka patří jen do jedné kategorie. Pokud položku zařadíte nesprávně, na obrazovce se objeví křížek - v takovém případě prosím chybu opravte a stiskněte odpovídající tlačítko. 
Pro pokračování zmáčkněte klávesu E nebo I. ", , ,Negativní,Pozitivní,None,3,text_trial_type_3,img_trial_type_3,0,1,1,1,9,1,19,0,i,1,0.681628,None,0,,14,m,20,60.1899474361,IAT,2019_Nov_30_1203,
"Jak vidíte, čtyři kategorie, která jste v předchozích kolech viděli odděleně, se nyní zobrazují všechny najednou. Každá položka (slovo nebo fotka) náleží jen do jedné skupiny. 

Pomocí kláves E a I prosím třiďte položky do čtyř skupin uvedených vlevo i vpravo. Případnou chybu prosím opravte stisknutím náležitého tlačítka. 

Pro pokračování stiskněte klávesu E nebo I. ",Černoch,Běloch,Negativní,Pozitivní,nebo,4,text_trial_type_4,img_trial_type_4,0,2,2,2,0,0,0,3,e,1,2.0484806,None,0,,14,m,20,60.1899474361,IAT,2019_Nov_30_1203,
"Jak vidíte, čtyři kategorie, která jste v předchozích kolech viděli odděleně, se nyní zobrazují všechny najednou. Každá položka (slovo nebo fotka) náleží jen do jedné skupiny. 

Pomocí kláves E a I prosím třiďte položky do čtyř skupin uvedených vlevo i vpravo. Případnou chybu prosím opravte stisknutím náležitého tlačítka. 

Pro pokračování stiskněte klávesu E nebo I. ",Černoch,Běloch,Negativní,Pozitivní,nebo,3,text_trial_type_3,img_trial_type_3,0,2,2,2,0,1,1,2,i,1,0.634218,None,0,,14,m,20,60.1899474361,IAT,2019_Nov_30_1203,
"Jak vidíte, čtyři kategorie, která jste v předchozích kolech viděli odděleně, se nyní zobrazují všechny najednou. Každá položka (slovo nebo fotka) náleží jen do jedné skupiny. 

Pomocí kláves E a I prosím třiďte položky do čtyř skupin uvedených vlevo i vpravo. Případnou chybu prosím opravte stisknutím náležitého tlačítka. 

Pro pokračování stiskněte klávesu E nebo I. ",Černoch,Běloch,Negativní,Pozitivní,nebo,4,text_trial_type_4,img_trial_type_4,0,2,2,2,0,2,2,3,e,1,0.7668158,None,0,,14,m,20,60.1899474361,IAT,2019_Nov_30_1203,
"Jak vidíte, čtyři kategorie, která jste v předchozích kolech viděli odděleně, se nyní zobrazují všechny najednou. Každá položka (slovo nebo fotka) náleží jen do jedné skupiny. 

Pomocí kláves E a I prosím třiďte položky do čtyř skupin uvedených vlevo i vpravo. Případnou chybu prosím opravte stisknutím náležitého tlačítka. 

Pro pokračování stiskněte klávesu E nebo I. ",Černoch,Běloch,Negativní,Pozitivní,nebo,2,text_trial_type_2,img_trial_type_2,0,2,2,2,0,3,3,1,i,1,1.732949,None,0,,14,m,20,60.1899474361,IAT,2019_Nov_30_1203,
"Jak vidíte, čtyři kategorie, která jste v předchozích kolech viděli odděleně, se nyní zobrazují všechny najednou. Každá položka (slovo nebo fotka) náleží jen do jedné skupiny. 

Pomocí kláves E a I prosím třiďte položky do čtyř skupin uvedených vlevo i vpravo. Případnou chybu prosím opravte stisknutím náležitého tlačítka. 

Pro pokračování stiskněte klávesu E nebo I. ",Černoch,Běloch,Negativní,Pozitivní,nebo,1,text_trial_type_1,img_trial_type_1,0,2,2,2,1,0,4,0,e,1,0.8671492,None,0,,14,m,20,60.1899474361,IAT,2019_Nov_30_1203,
"Jak vidíte, čtyři kategorie, která jste v předchozích kolech viděli odděleně, se nyní zobrazují všechny najednou. Každá položka (slovo nebo fotka) náleží jen do jedné skupiny. 

Pomocí kláves E a I prosím třiďte položky do čtyř skupin uvedených vlevo i vpravo. Případnou chybu prosím opravte stisknutím náležitého tlačítka. 

Pro pokračování stiskněte klávesu E nebo I. ",Černoch,Běloch,Negativní,Pozitivní,nebo,3,text_trial_type_3,img_trial_type_3,0,2,2,2,1,1,5,2,i,1,1.2663534,None,0,,14,m,20,60.1899474361,IAT,2019_Nov_30_1203,
"Jak vidíte, čtyři kategorie, která jste v předchozích kolech viděli odděleně, se nyní zobrazují všechny najednou. Každá položka (slovo nebo fotka) náleží jen do jedné skupiny. 

Pomocí kláves E a I prosím třiďte položky do čtyř skupin uvedených vlevo i vpravo. Případnou chybu prosím opravte stisknutím náležitého tlačítka. 

Pro pokračování stiskněte klávesu E nebo I. ",Černoch,Běloch,Negativní,Pozitivní,nebo,1,text_trial_type_1,img_trial_type_1,0,2,2,2,1,2,6,0,e,1,1.2489037,None,0,,14,m,20,60.1899474361,IAT,2019_Nov_30_1203,
"Jak vidíte, čtyři kategorie, která jste v předchozích kolech viděli odděleně, se nyní zobrazují všechny najednou. Každá položka (slovo nebo fotka) náleží jen do jedné skupiny. 

Pomocí kláves E a I prosím třiďte položky do čtyř skupin uvedených vlevo i vpravo. Případnou chybu prosím opravte stisknutím náležitého tlačítka. 

Pro pokračování stiskněte klávesu E nebo I. ",Černoch,Běloch,Negativní,Pozitivní,nebo,4,text_trial_type_4,img_trial_type_4,0,2,2,2,1,3,7,3,e,1,0.9501956,None,0,,14,m,20,60.1899474361,IAT,2019_Nov_30_1203,
"Jak vidíte, čtyři kategorie, která jste v předchozích kolech viděli odděleně, se nyní zobrazují všechny najednou. Každá položka (slovo nebo fotka) náleží jen do jedné skupiny. 

Pomocí kláves E a I prosím třiďte položky do čtyř skupin uvedených vlevo i vpravo. Případnou chybu prosím opravte stisknutím náležitého tlačítka. 

Pro pokračování stiskněte klávesu E nebo I. ",Černoch,Běloch,Negativní,Pozitivní,nebo,2,text_trial_type_2,img_trial_type_2,0,2,2,2,2,0,8,1,i,1,1.0666543,None,0,,14,m,20,60.1899474361,IAT,2019_Nov_30_1203,
"Jak vidíte, čtyři kategorie, která jste v předchozích kolech viděli odděleně, se nyní zobrazují všechny najednou. Každá položka (slovo nebo fotka) náleží jen do jedné skupiny. 

Pomocí kláves E a I prosím třiďte položky do čtyř skupin uvedených vlevo i vpravo. Případnou chybu prosím opravte stisknutím náležitého tlačítka. 

Pro pokračování stiskněte klávesu E nebo I. ",Černoch,Běloch,Negativní,Pozitivní,nebo,1,text_trial_type_1,img_trial_type_1,0,2,2,2,2,1,9,0,e,1,0.7668242,None,0,,14,m,20,60.1899474361,IAT,2019_Nov_30_1203,
"Jak vidíte, čtyři kategorie, která jste v předchozích kolech viděli odděleně, se nyní zobrazují všechny najednou. Každá položka (slovo nebo fotka) náleží jen do jedné skupiny. 

Pomocí kláves E a I prosím třiďte položky do čtyř skupin uvedených vlevo i vpravo. Případnou chybu prosím opravte stisknutím náležitého tlačítka. 

Pro pokračování stiskněte klávesu E nebo I. ",Černoch,Běloch,Negativní,Pozitivní,nebo,3,text_trial_type_3,img_trial_type_3,0,2,2,2,2,2,10,2,i,1,0.9824652,None,0,,14,m,20,60.1899474361,IAT,2019_Nov_30_1203,
"Jak vidíte, čtyři kategorie, která jste v předchozích kolech viděli odděleně, se nyní zobrazují všechny najednou. Každá položka (slovo nebo fotka) náleží jen do jedné skupiny. 

Pomocí kláves E a I prosím třiďte položky do čtyř skupin uvedených vlevo i vpravo. Případnou chybu prosím opravte stisknutím náležitého tlačítka. 

Pro pokračování stiskněte klávesu E nebo I. ",Černoch,Běloch,Negativní,Pozitivní,nebo,2,text_trial_type_2,img_trial_type_2,0,2,2,2,2,3,11,1,i,1,1.0832313,None,0,,14,m,20,60.1899474361,IAT,2019_Nov_30_1203,
"Jak vidíte, čtyři kategorie, která jste v předchozích kolech viděli odděleně, se nyní zobrazují všechny najednou. Každá položka (slovo nebo fotka) náleží jen do jedné skupiny. 

Pomocí kláves E a I prosím třiďte položky do čtyř skupin uvedených vlevo i vpravo. Případnou chybu prosím opravte stisknutím náležitého tlačítka. 

Pro pokračování stiskněte klávesu E nebo I. ",Černoch,Běloch,Negativní,Pozitivní,nebo,3,text_trial_type_3,img_trial_type_3,0,2,2,2,3,0,12,2,i,1,1.2998371,None,0,,14,m,20,60.1899474361,IAT,2019_Nov_30_1203,
"Jak vidíte, čtyři kategorie, která jste v předchozích kolech viděli odděleně, se nyní zobrazují všechny najednou. Každá položka (slovo nebo fotka) náleží jen do jedné skupiny. 

Pomocí kláves E a I prosím třiďte položky do čtyř skupin uvedených vlevo i vpravo. Případnou chybu prosím opravte stisknutím náležitého tlačítka. 

Pro pokračování stiskněte klávesu E nebo I. ",Černoch,Běloch,Negativní,Pozitivní,nebo,4,text_trial_type_4,img_trial_type_4,0,2,2,2,3,1,13,3,e,1,0.6839498,None,0,,14,m,20,60.1899474361,IAT,2019_Nov_30_1203,
"Jak vidíte, čtyři kategorie, která jste v předchozích kolech viděli odděleně, se nyní zobrazují všechny najednou. Každá položka (slovo nebo fotka) náleží jen do jedné skupiny. 

Pomocí kláves E a I prosím třiďte položky do čtyř skupin uvedených vlevo i vpravo. Případnou chybu prosím opravte stisknutím náležitého tlačítka. 

Pro pokračování stiskněte klávesu E nebo I. ",Černoch,Běloch,Negativní,Pozitivní,nebo,2,text_trial_type_2,img_trial_type_2,0,2,2,2,3,2,14,1,i,1,1.9324615,None,0,,14,m,20,60.1899474361,IAT,2019_Nov_30_1203,
"Jak vidíte, čtyři kategorie, která jste v předchozích kolech viděli odděleně, se nyní zobrazují všechny najednou. Každá položka (slovo nebo fotka) náleží jen do jedné skupiny. 

Pomocí kláves E a I prosím třiďte položky do čtyř skupin uvedených vlevo i vpravo. Případnou chybu prosím opravte stisknutím náležitého tlačítka. 

Pro pokračování stiskněte klávesu E nebo I. ",Černoch,Běloch,Negativní,Pozitivní,nebo,3,text_trial_type_3,img_trial_type_3,0,2,2,2,3,3,15,2,i,1,0.9668678,None,0,,14,m,20,60.1899474361,IAT,2019_Nov_30_1203,
"Jak vidíte, čtyři kategorie, která jste v předchozích kolech viděli odděleně, se nyní zobrazují všechny najednou. Každá položka (slovo nebo fotka) náleží jen do jedné skupiny. 

Pomocí kláves E a I prosím třiďte položky do čtyř skupin uvedených vlevo i vpravo. Případnou chybu prosím opravte stisknutím náležitého tlačítka. 

Pro pokračování stiskněte klávesu E nebo I. ",Černoch,Běloch,Negativní,Pozitivní,nebo,2,text_trial_type_2,img_trial_type_2,0,2,2,2,4,0,16,1,i,1,0.6010072,None,0,,14,m,20,60.1899474361,IAT,2019_Nov_30_1203,
"Jak vidíte, čtyři kategorie, která jste v předchozích kolech viděli odděleně, se nyní zobrazují všechny najednou. Každá položka (slovo nebo fotka) náleží jen do jedné skupiny. 

Pomocí kláves E a I prosím třiďte položky do čtyř skupin uvedených vlevo i vpravo. Případnou chybu prosím opravte stisknutím náležitého tlačítka. 

Pro pokračování stiskněte klávesu E nebo I. ",Černoch,Běloch,Negativní,Pozitivní,nebo,1,text_trial_type_1,img_trial_type_1,0,2,2,2,4,1,17,0,e,1,0.7167224,None,0,,14,m,20,60.1899474361,IAT,2019_Nov_30_1203,
"Jak vidíte, čtyři kategorie, která jste v předchozích kolech viděli odděleně, se nyní zobrazují všechny najednou. Každá položka (slovo nebo fotka) náleží jen do jedné skupiny. 

Pomocí kláves E a I prosím třiďte položky do čtyř skupin uvedených vlevo i vpravo. Případnou chybu prosím opravte stisknutím náležitého tlačítka. 

Pro pokračování stiskněte klávesu E nebo I. ",Černoch,Běloch,Negativní,Pozitivní,nebo,1,text_trial_type_1,img_trial_type_1,0,2,2,2,4,2,18,0,e,1,0.6834841,None,0,,14,m,20,60.1899474361,IAT,2019_Nov_30_1203,
"Jak vidíte, čtyři kategorie, která jste v předchozích kolech viděli odděleně, se nyní zobrazují všechny najednou. Každá položka (slovo nebo fotka) náleží jen do jedné skupiny. 

Pomocí kláves E a I prosím třiďte položky do čtyř skupin uvedených vlevo i vpravo. Případnou chybu prosím opravte stisknutím náležitého tlačítka. 

Pro pokračování stiskněte klávesu E nebo I. ",Černoch,Běloch,Negativní,Pozitivní,nebo,4,text_trial_type_4,img_trial_type_4,0,2,2,2,4,3,19,3,e,1,0.7495587,None,0,,14,m,20,60.1899474361,IAT,2019_Nov_30_1203,
"Instrukce zůstávají stejné jako v minulém kole. Nezapomeňte prosím, že čas je v této úloze velmi důležitý.

Pomocí kláves E a I prosím třiďte položky do čtyř skupin uvedených vlevo i vpravo. Případnou chybu prosím opravte stisknutím náležitého tlačítka. 

Pro pokračování stiskněte klávesu E nebo I. ",Černoch,Běloch,Negativní,Pozitivní,nebo,3,text_trial_type_3,img_trial_type_3,0,3,3,3,0,0,0,2,i,1,1.099063,None,0,,14,m,20,60.1899474361,IAT,2019_Nov_30_1203,
"Instrukce zůstávají stejné jako v minulém kole. Nezapomeňte prosím, že čas je v této úloze velmi důležitý.

Pomocí kláves E a I prosím třiďte položky do čtyř skupin uvedených vlevo i vpravo. Případnou chybu prosím opravte stisknutím náležitého tlačítka. 

Pro pokračování stiskněte klávesu E nebo I. ",Černoch,Běloch,Negativní,Pozitivní,nebo,2,text_trial_type_2,img_trial_type_2,0,3,3,3,0,1,1,1,i,1,0.8337464,None,0,,14,m,20,60.1899474361,IAT,2019_Nov_30_1203,
"Instrukce zůstávají stejné jako v minulém kole. Nezapomeňte prosím, že čas je v této úloze velmi důležitý.

Pomocí kláves E a I prosím třiďte položky do čtyř skupin uvedených vlevo i vpravo. Případnou chybu prosím opravte stisknutím náležitého tlačítka. 

Pro pokračování stiskněte klávesu E nebo I. ",Černoch,Běloch,Negativní,Pozitivní,nebo,1,text_trial_type_1,img_trial_type_1,0,3,3,3,0,2,2,0,e,1,0.749725,None,0,,14,m,20,60.1899474361,IAT,2019_Nov_30_1203,
"Instrukce zůstávají stejné jako v minulém kole. Nezapomeňte prosím, že čas je v této úloze velmi důležitý.

Pomocí kláves E a I prosím třiďte položky do čtyř skupin uvedených vlevo i vpravo. Případnou chybu prosím opravte stisknutím náležitého tlačítka. 

Pro pokračování stiskněte klávesu E nebo I. ",Černoch,Běloch,Negativní,Pozitivní,nebo,1,text_trial_type_1,img_trial_type_1,0,3,3,3,0,3,3,0,e,1,0.6158643,None,0,,14,m,20,60.1899474361,IAT,2019_Nov_30_1203,
"Instrukce zůstávají stejné jako v minulém kole. Nezapomeňte prosím, že čas je v této úloze velmi důležitý.

Pomocí kláves E a I prosím třiďte položky do čtyř skupin uvedených vlevo i vpravo. Případnou chybu prosím opravte stisknutím náležitého tlačítka. 

Pro pokračování stiskněte klávesu E nebo I. ",Černoch,Běloch,Negativní,Pozitivní,nebo,2,text_trial_type_2,img_trial_type_2,0,3,3,3,1,0,4,1,i,1,0.6328992,None,0,,14,m,20,60.1899474361,IAT,2019_Nov_30_1203,
"Instrukce zůstávají stejné jako v minulém kole. Nezapomeňte prosím, že čas je v této úloze velmi důležitý.

Pomocí kláves E a I prosím třiďte položky do čtyř skupin uvedených vlevo i vpravo. Případnou chybu prosím opravte stisknutím náležitého tlačítka. 

Pro pokračování stiskněte klávesu E nebo I. ",Černoch,Běloch,Negativní,Pozitivní,nebo,3,text_trial_type_3,img_trial_type_3,0,3,3,3,1,1,5,2,i,1,0.9168296,None,0,,14,m,20,60.1899474361,IAT,2019_Nov_30_1203,
"Instrukce zůstávají stejné jako v minulém kole. Nezapomeňte prosím, že čas je v této úloze velmi důležitý.

Pomocí kláves E a I prosím třiďte položky do čtyř skupin uvedených vlevo i vpravo. Případnou chybu prosím opravte stisknutím náležitého tlačítka. 

Pro pokračování stiskněte klávesu E nebo I. ",Černoch,Běloch,Negativní,Pozitivní,nebo,2,text_trial_type_2,img_trial_type_2,0,3,3,3,1,2,6,1,i,1,0.7662739,None,0,,14,m,20,60.1899474361,IAT,2019_Nov_30_1203,
"Instrukce zůstávají stejné jako v minulém kole. Nezapomeňte prosím, že čas je v této úloze velmi důležitý.

Pomocí kláves E a I prosím třiďte položky do čtyř skupin uvedených vlevo i vpravo. Případnou chybu prosím opravte stisknutím náležitého tlačítka. 

Pro pokračování stiskněte klávesu E nebo I. ",Černoch,Běloch,Negativní,Pozitivní,nebo,1,text_trial_type_1,img_trial_type_1,0,3,3,3,1,3,7,0,e,1,0.5658918,None,0,,14,m,20,60.1899474361,IAT,2019_Nov_30_1203,
"Instrukce zůstávají stejné jako v minulém kole. Nezapomeňte prosím, že čas je v této úloze velmi důležitý.

Pomocí kláves E a I prosím třiďte položky do čtyř skupin uvedených vlevo i vpravo. Případnou chybu prosím opravte stisknutím náležitého tlačítka. 

Pro pokračování stiskněte klávesu E nebo I. ",Černoch,Běloch,Negativní,Pozitivní,nebo,4,text_trial_type_4,img_trial_type_4,0,3,3,3,2,0,8,3,e,1,1.0491031,None,0,,14,m,20,60.1899474361,IAT,2019_Nov_30_1203,
"Instrukce zůstávají stejné jako v minulém kole. Nezapomeňte prosím, že čas je v této úloze velmi důležitý.

Pomocí kláves E a I prosím třiďte položky do čtyř skupin uvedených vlevo i vpravo. Případnou chybu prosím opravte stisknutím náležitého tlačítka. 

Pro pokračování stiskněte klávesu E nebo I. ",Černoch,Běloch,Negativní,Pozitivní,nebo,1,text_trial_type_1,img_trial_type_1,0,3,3,3,2,1,9,0,e,1,1.8829726,i,1,0.716785,14,m,20,60.1899474361,IAT,2019_Nov_30_1203,
"Instrukce zůstávají stejné jako v minulém kole. Nezapomeňte prosím, že čas je v této úloze velmi důležitý.

Pomocí kláves E a I prosím třiďte položky do čtyř skupin uvedených vlevo i vpravo. Případnou chybu prosím opravte stisknutím náležitého tlačítka. 

Pro pokračování stiskněte klávesu E nebo I. ",Černoch,Běloch,Negativní,Pozitivní,nebo,3,text_trial_type_3,img_trial_type_3,0,3,3,3,2,2,10,2,i,1,1.3653482,None,0,,14,m,20,60.1899474361,IAT,2019_Nov_30_1203,
"Instrukce zůstávají stejné jako v minulém kole. Nezapomeňte prosím, že čas je v této úloze velmi důležitý.

Pomocí kláves E a I prosím třiďte položky do čtyř skupin uvedených vlevo i vpravo. Případnou chybu prosím opravte stisknutím náležitého tlačítka. 

Pro pokračování stiskněte klávesu E nebo I. ",Černoch,Běloch,Negativní,Pozitivní,nebo,4,text_trial_type_4,img_trial_type_4,0,3,3,3,2,3,11,3,e,1,1.0333079,None,0,,14,m,20,60.1899474361,IAT,2019_Nov_30_1203,
"Instrukce zůstávají stejné jako v minulém kole. Nezapomeňte prosím, že čas je v této úloze velmi důležitý.

Pomocí kláves E a I prosím třiďte položky do čtyř skupin uvedených vlevo i vpravo. Případnou chybu prosím opravte stisknutím náležitého tlačítka. 

Pro pokračování stiskněte klávesu E nebo I. ",Černoch,Běloch,Negativní,Pozitivní,nebo,2,text_trial_type_2,img_trial_type_2,0,3,3,3,3,0,12,1,i,1,0.8169377,None,0,,14,m,20,60.1899474361,IAT,2019_Nov_30_1203,
"Instrukce zůstávají stejné jako v minulém kole. Nezapomeňte prosím, že čas je v této úloze velmi důležitý.

Pomocí kláves E a I prosím třiďte položky do čtyř skupin uvedených vlevo i vpravo. Případnou chybu prosím opravte stisknutím náležitého tlačítka. 

Pro pokračování stiskněte klávesu E nebo I. ",Černoch,Běloch,Negativní,Pozitivní,nebo,3,text_trial_type_3,img_trial_type_3,0,3,3,3,3,1,13,2,i,1,0.6347847,None,0,,14,m,20,60.1899474361,IAT,2019_Nov_30_1203,
"Instrukce zůstávají stejné jako v minulém kole. Nezapomeňte prosím, že čas je v této úloze velmi důležitý.

Pomocí kláves E a I prosím třiďte položky do čtyř skupin uvedených vlevo i vpravo. Případnou chybu prosím opravte stisknutím náležitého tlačítka. 

Pro pokračování stiskněte klávesu E nebo I. ",Černoch,Běloch,Negativní,Pozitivní,nebo,4,text_trial_type_4,img_trial_type_4,0,3,3,3,3,2,14,3,e,1,0.649589,None,0,,14,m,20,60.1899474361,IAT,2019_Nov_30_1203,
"Instrukce zůstávají stejné jako v minulém kole. Nezapomeňte prosím, že čas je v této úloze velmi důležitý.

Pomocí kláves E a I prosím třiďte položky do čtyř skupin uvedených vlevo i vpravo. Případnou chybu prosím opravte stisknutím náležitého tlačítka. 

Pro pokračování stiskněte klávesu E nebo I. ",Černoch,Běloch,Negativní,Pozitivní,nebo,4,text_trial_type_4,img_trial_type_4,0,3,3,3,3,3,15,3,e,1,0.9822399,None,0,,14,m,20,60.1899474361,IAT,2019_Nov_30_1203,
"Instrukce zůstávají stejné jako v minulém kole. Nezapomeňte prosím, že čas je v této úloze velmi důležitý.

Pomocí kláves E a I prosím třiďte položky do čtyř skupin uvedených vlevo i vpravo. Případnou chybu prosím opravte stisknutím náležitého tlačítka. 

Pro pokračování stiskněte klávesu E nebo I. ",Černoch,Běloch,Negativní,Pozitivní,nebo,1,text_trial_type_1,img_trial_type_1,0,3,3,3,4,0,16,0,e,1,0.9324673,None,0,,14,m,20,60.1899474361,IAT,2019_Nov_30_1203,
"Instrukce zůstávají stejné jako v minulém kole. Nezapomeňte prosím, že čas je v této úloze velmi důležitý.

Pomocí kláves E a I prosím třiďte položky do čtyř skupin uvedených vlevo i vpravo. Případnou chybu prosím opravte stisknutím náležitého tlačítka. 

Pro pokračování stiskněte klávesu E nebo I. ",Černoch,Běloch,Negativní,Pozitivní,nebo,2,text_trial_type_2,img_trial_type_2,0,3,3,3,4,1,17,1,i,1,0.5839294,None,0,,14,m,20,60.1899474361,IAT,2019_Nov_30_1203,
"Instrukce zůstávají stejné jako v minulém kole. Nezapomeňte prosím, že čas je v této úloze velmi důležitý.

Pomocí kláves E a I prosím třiďte položky do čtyř skupin uvedených vlevo i vpravo. Případnou chybu prosím opravte stisknutím náležitého tlačítka. 

Pro pokračování stiskněte klávesu E nebo I. ",Černoch,Běloch,Negativní,Pozitivní,nebo,2,text_trial_type_2,img_trial_type_2,0,3,3,3,4,2,18,1,i,1,0.8663702,None,0,,14,m,20,60.1899474361,IAT,2019_Nov_30_1203,
"Instrukce zůstávají stejné jako v minulém kole. Nezapomeňte prosím, že čas je v této úloze velmi důležitý.

Pomocí kláves E a I prosím třiďte položky do čtyř skupin uvedených vlevo i vpravo. Případnou chybu prosím opravte stisknutím náležitého tlačítka. 

Pro pokračování stiskněte klávesu E nebo I. ",Černoch,Běloch,Negativní,Pozitivní,nebo,2,text_trial_type_2,img_trial_type_2,0,3,3,3,4,3,19,1,i,1,0.5336005,None,0,,14,m,20,60.1899474361,IAT,2019_Nov_30_1203,
"Instrukce zůstávají stejné jako v minulém kole. Nezapomeňte prosím, že čas je v této úloze velmi důležitý.

Pomocí kláves E a I prosím třiďte položky do čtyř skupin uvedených vlevo i vpravo. Případnou chybu prosím opravte stisknutím náležitého tlačítka. 

Pro pokračování stiskněte klávesu E nebo I. ",Černoch,Běloch,Negativní,Pozitivní,nebo,2,text_trial_type_2,img_trial_type_2,0,3,3,3,5,0,20,1,i,1,0.7838553,None,0,,14,m,20,60.1899474361,IAT,2019_Nov_30_1203,
"Instrukce zůstávají stejné jako v minulém kole. Nezapomeňte prosím, že čas je v této úloze velmi důležitý.

Pomocí kláves E a I prosím třiďte položky do čtyř skupin uvedených vlevo i vpravo. Případnou chybu prosím opravte stisknutím náležitého tlačítka. 

Pro pokračování stiskněte klávesu E nebo I. ",Černoch,Běloch,Negativní,Pozitivní,nebo,1,text_trial_type_1,img_trial_type_1,0,3,3,3,5,1,21,0,e,1,0.7164184,None,0,,14,m,20,60.1899474361,IAT,2019_Nov_30_1203,
"Instrukce zůstávají stejné jako v minulém kole. Nezapomeňte prosím, že čas je v této úloze velmi důležitý.

Pomocí kláves E a I prosím třiďte položky do čtyř skupin uvedených vlevo i vpravo. Případnou chybu prosím opravte stisknutím náležitého tlačítka. 

Pro pokračování stiskněte klávesu E nebo I. ",Černoch,Běloch,Negativní,Pozitivní,nebo,1,text_trial_type_1,img_trial_type_1,0,3,3,3,5,2,22,0,e,1,0.650551,None,0,,14,m,20,60.1899474361,IAT,2019_Nov_30_1203,
"Instrukce zůstávají stejné jako v minulém kole. Nezapomeňte prosím, že čas je v této úloze velmi důležitý.

Pomocí kláves E a I prosím třiďte položky do čtyř skupin uvedených vlevo i vpravo. Případnou chybu prosím opravte stisknutím náležitého tlačítka. 

Pro pokračování stiskněte klávesu E nebo I. ",Černoch,Běloch,Negativní,Pozitivní,nebo,4,text_trial_type_4,img_trial_type_4,0,3,3,3,5,3,23,3,e,1,0.7666301,None,0,,14,m,20,60.1899474361,IAT,2019_Nov_30_1203,
"Instrukce zůstávají stejné jako v minulém kole. Nezapomeňte prosím, že čas je v této úloze velmi důležitý.

Pomocí kláves E a I prosím třiďte položky do čtyř skupin uvedených vlevo i vpravo. Případnou chybu prosím opravte stisknutím náležitého tlačítka. 

Pro pokračování stiskněte klávesu E nebo I. ",Černoch,Běloch,Negativní,Pozitivní,nebo,4,text_trial_type_4,img_trial_type_4,0,3,3,3,6,0,24,3,e,1,0.567183,None,0,,14,m,20,60.1899474361,IAT,2019_Nov_30_1203,
"Instrukce zůstávají stejné jako v minulém kole. Nezapomeňte prosím, že čas je v této úloze velmi důležitý.

Pomocí kláves E a I prosím třiďte položky do čtyř skupin uvedených vlevo i vpravo. Případnou chybu prosím opravte stisknutím náležitého tlačítka. 

Pro pokračování stiskněte klávesu E nebo I. ",Černoch,Běloch,Negativní,Pozitivní,nebo,1,text_trial_type_1,img_trial_type_1,0,3,3,3,6,1,25,0,e,1,1.1654656,None,0,,14,m,20,60.1899474361,IAT,2019_Nov_30_1203,
"Instrukce zůstávají stejné jako v minulém kole. Nezapomeňte prosím, že čas je v této úloze velmi důležitý.

Pomocí kláves E a I prosím třiďte položky do čtyř skupin uvedených vlevo i vpravo. Případnou chybu prosím opravte stisknutím náležitého tlačítka. 

Pro pokračování stiskněte klávesu E nebo I. ",Černoch,Běloch,Negativní,Pozitivní,nebo,2,text_trial_type_2,img_trial_type_2,0,3,3,3,6,2,26,1,i,1,0.6501613,None,0,,14,m,20,60.1899474361,IAT,2019_Nov_30_1203,
"Instrukce zůstávají stejné jako v minulém kole. Nezapomeňte prosím, že čas je v této úloze velmi důležitý.

Pomocí kláves E a I prosím třiďte položky do čtyř skupin uvedených vlevo i vpravo. Případnou chybu prosím opravte stisknutím náležitého tlačítka. 

Pro pokračování stiskněte klávesu E nebo I. ",Černoch,Běloch,Negativní,Pozitivní,nebo,4,text_trial_type_4,img_trial_type_4,0,3,3,3,6,3,27,3,e,1,0.9833438,None,0,,14,m,20,60.1899474361,IAT,2019_Nov_30_1203,
"Instrukce zůstávají stejné jako v minulém kole. Nezapomeňte prosím, že čas je v této úloze velmi důležitý.

Pomocí kláves E a I prosím třiďte položky do čtyř skupin uvedených vlevo i vpravo. Případnou chybu prosím opravte stisknutím náležitého tlačítka. 

Pro pokračování stiskněte klávesu E nebo I. ",Černoch,Běloch,Negativní,Pozitivní,nebo,2,text_trial_type_2,img_trial_type_2,0,3,3,3,7,0,28,1,i,1,1.2319848,None,0,,14,m,20,60.1899474361,IAT,2019_Nov_30_1203,
"Instrukce zůstávají stejné jako v minulém kole. Nezapomeňte prosím, že čas je v této úloze velmi důležitý.

Pomocí kláves E a I prosím třiďte položky do čtyř skupin uvedených vlevo i vpravo. Případnou chybu prosím opravte stisknutím náležitého tlačítka. 

Pro pokračování stiskněte klávesu E nebo I. ",Černoch,Běloch,Negativní,Pozitivní,nebo,3,text_trial_type_3,img_trial_type_3,0,3,3,3,7,1,29,2,i,1,0.9659785,None,0,,14,m,20,60.1899474361,IAT,2019_Nov_30_1203,
"Instrukce zůstávají stejné jako v minulém kole. Nezapomeňte prosím, že čas je v této úloze velmi důležitý.

Pomocí kláves E a I prosím třiďte položky do čtyř skupin uvedených vlevo i vpravo. Případnou chybu prosím opravte stisknutím náležitého tlačítka. 

Pro pokračování stiskněte klávesu E nebo I. ",Černoch,Běloch,Negativní,Pozitivní,nebo,4,text_trial_type_4,img_trial_type_4,0,3,3,3,7,2,30,3,e,1,0.5671069,None,0,,14,m,20,60.1899474361,IAT,2019_Nov_30_1203,
"Instrukce zůstávají stejné jako v minulém kole. Nezapomeňte prosím, že čas je v této úloze velmi důležitý.

Pomocí kláves E a I prosím třiďte položky do čtyř skupin uvedených vlevo i vpravo. Případnou chybu prosím opravte stisknutím náležitého tlačítka. 

Pro pokračování stiskněte klávesu E nebo I. ",Černoch,Běloch,Negativní,Pozitivní,nebo,3,text_trial_type_3,img_trial_type_3,0,3,3,3,7,3,31,2,i,1,0.6342411,None,0,,14,m,20,60.1899474361,IAT,2019_Nov_30_1203,
"Instrukce zůstávají stejné jako v minulém kole. Nezapomeňte prosím, že čas je v této úloze velmi důležitý.

Pomocí kláves E a I prosím třiďte položky do čtyř skupin uvedených vlevo i vpravo. Případnou chybu prosím opravte stisknutím náležitého tlačítka. 

Pro pokračování stiskněte klávesu E nebo I. ",Černoch,Běloch,Negativní,Pozitivní,nebo,3,text_trial_type_3,img_trial_type_3,0,3,3,3,8,0,32,2,i,1,0.6498764,None,0,,14,m,20,60.1899474361,IAT,2019_Nov_30_1203,
"Instrukce zůstávají stejné jako v minulém kole. Nezapomeňte prosím, že čas je v této úloze velmi důležitý.

Pomocí kláves E a I prosím třiďte položky do čtyř skupin uvedených vlevo i vpravo. Případnou chybu prosím opravte stisknutím náležitého tlačítka. 

Pro pokračování stiskněte klávesu E nebo I. ",Černoch,Běloch,Negativní,Pozitivní,nebo,3,text_trial_type_3,img_trial_type_3,0,3,3,3,8,1,33,2,i,1,0.5180374,None,0,,14,m,20,60.1899474361,IAT,2019_Nov_30_1203,
"Instrukce zůstávají stejné jako v minulém kole. Nezapomeňte prosím, že čas je v této úloze velmi důležitý.

Pomocí kláves E a I prosím třiďte položky do čtyř skupin uvedených vlevo i vpravo. Případnou chybu prosím opravte stisknutím náležitého tlačítka. 

Pro pokračování stiskněte klávesu E nebo I. ",Černoch,Běloch,Negativní,Pozitivní,nebo,3,text_trial_type_3,img_trial_type_3,0,3,3,3,8,2,34,2,i,1,0.5325373,None,0,,14,m,20,60.1899474361,IAT,2019_Nov_30_1203,
"Instrukce zůstávají stejné jako v minulém kole. Nezapomeňte prosím, že čas je v této úloze velmi důležitý.

Pomocí kláves E a I prosím třiďte položky do čtyř skupin uvedených vlevo i vpravo. Případnou chybu prosím opravte stisknutím náležitého tlačítka. 

Pro pokračování stiskněte klávesu E nebo I. ",Černoch,Běloch,Negativní,Pozitivní,nebo,3,text_trial_type_3,img_trial_type_3,0,3,3,3,8,3,35,2,i,1,0.5158231,None,0,,14,m,20,60.1899474361,IAT,2019_Nov_30_1203,
"Instrukce zůstávají stejné jako v minulém kole. Nezapomeňte prosím, že čas je v této úloze velmi důležitý.

Pomocí kláves E a I prosím třiďte položky do čtyř skupin uvedených vlevo i vpravo. Případnou chybu prosím opravte stisknutím náležitého tlačítka. 

Pro pokračování stiskněte klávesu E nebo I. ",Černoch,Běloch,Negativní,Pozitivní,nebo,4,text_trial_type_4,img_trial_type_4,0,3,3,3,9,0,36,3,e,1,0.8166367,None,0,,14,m,20,60.1899474361,IAT,2019_Nov_30_1203,
"Instrukce zůstávají stejné jako v minulém kole. Nezapomeňte prosím, že čas je v této úloze velmi důležitý.

Pomocí kláves E a I prosím třiďte položky do čtyř skupin uvedených vlevo i vpravo. Případnou chybu prosím opravte stisknutím náležitého tlačítka. 

Pro pokračování stiskněte klávesu E nebo I. ",Černoch,Běloch,Negativní,Pozitivní,nebo,4,text_trial_type_4,img_trial_type_4,0,3,3,3,9,1,37,3,e,1,0.5503314,None,0,,14,m,20,60.1899474361,IAT,2019_Nov_30_1203,
"Instrukce zůstávají stejné jako v minulém kole. Nezapomeňte prosím, že čas je v této úloze velmi důležitý.

Pomocí kláves E a I prosím třiďte položky do čtyř skupin uvedených vlevo i vpravo. Případnou chybu prosím opravte stisknutím náležitého tlačítka. 

Pro pokračování stiskněte klávesu E nebo I. ",Černoch,Běloch,Negativní,Pozitivní,nebo,1,text_trial_type_1,img_trial_type_1,0,3,3,3,9,2,38,0,e,1,0.8840941,None,0,,14,m,20,60.1899474361,IAT,2019_Nov_30_1203,
"Instrukce zůstávají stejné jako v minulém kole. Nezapomeňte prosím, že čas je v této úloze velmi důležitý.

Pomocí kláves E a I prosím třiďte položky do čtyř skupin uvedených vlevo i vpravo. Případnou chybu prosím opravte stisknutím náležitého tlačítka. 

Pro pokračování stiskněte klávesu E nebo I. ",Černoch,Běloch,Negativní,Pozitivní,nebo,1,text_trial_type_1,img_trial_type_1,0,3,3,3,9,3,39,0,e,1,0.7670943,None,0,,14,m,20,60.1899474361,IAT,2019_Nov_30_1203,
"Všimněte si prosím, že v horní části obrazovky teď jsou jen dvě kategorie - a prohodily si místa. Kategorie, která byla v minulém kole vlevo, teď je vpravo (a naopak). Využijte prosím toto cvičné kolo k tomu, abyste si zvykli na nové uspořádání. 
Pomocí kláves E a I prosím třiďte položky do čtyř skupin uvedených vlevo i vpravo. Případnou chybu prosím opravte stisknutím náležitého tlačítka. 

Pro pokračování stiskněte klávesu E nebo I. ",Černoch,Běloch, , , ,1,text_trial_type_1,img_trial_type_1,0,4,4,4,0,0,0,0,i,1,0.9511193,None,0,,14,m,20,60.1899474361,IAT,2019_Nov_30_1203,
"Všimněte si prosím, že v horní části obrazovky teď jsou jen dvě kategorie - a prohodily si místa. Kategorie, která byla v minulém kole vlevo, teď je vpravo (a naopak). Využijte prosím toto cvičné kolo k tomu, abyste si zvykli na nové uspořádání. 
Pomocí kláves E a I prosím třiďte položky do čtyř skupin uvedených vlevo i vpravo. Případnou chybu prosím opravte stisknutím náležitého tlačítka. 

Pro pokračování stiskněte klávesu E nebo I. ",Černoch,Běloch, , , ,1,text_trial_type_1,img_trial_type_1,0,4,4,4,0,1,1,0,i,1,0.4994226,None,0,,14,m,20,60.1899474361,IAT,2019_Nov_30_1203,
"Všimněte si prosím, že v horní části obrazovky teď jsou jen dvě kategorie - a prohodily si místa. Kategorie, která byla v minulém kole vlevo, teď je vpravo (a naopak). Využijte prosím toto cvičné kolo k tomu, abyste si zvykli na nové uspořádání. 
Pomocí kláves E a I prosím třiďte položky do čtyř skupin uvedených vlevo i vpravo. Případnou chybu prosím opravte stisknutím náležitého tlačítka. 

Pro pokračování stiskněte klávesu E nebo I. ",Černoch,Běloch, , , ,1,text_trial_type_1,img_trial_type_1,0,4,4,4,1,0,2,0,i,1,0.4010558,None,0,,14,m,20,60.1899474361,IAT,2019_Nov_30_1203,
"Všimněte si prosím, že v horní části obrazovky teď jsou jen dvě kategorie - a prohodily si místa. Kategorie, která byla v minulém kole vlevo, teď je vpravo (a naopak). Využijte prosím toto cvičné kolo k tomu, abyste si zvykli na nové uspořádání. 
Pomocí kláves E a I prosím třiďte položky do čtyř skupin uvedených vlevo i vpravo. Případnou chybu prosím opravte stisknutím náležitého tlačítka. 

Pro pokračování stiskněte klávesu E nebo I. ",Černoch,Běloch, , , ,2,text_trial_type_2,img_trial_type_2,0,4,4,4,1,1,3,1,e,1,0.5505621,None,0,,14,m,20,60.1899474361,IAT,2019_Nov_30_1203,
"Všimněte si prosím, že v horní části obrazovky teď jsou jen dvě kategorie - a prohodily si místa. Kategorie, která byla v minulém kole vlevo, teď je vpravo (a naopak). Využijte prosím toto cvičné kolo k tomu, abyste si zvykli na nové uspořádání. 
Pomocí kláves E a I prosím třiďte položky do čtyř skupin uvedených vlevo i vpravo. Případnou chybu prosím opravte stisknutím náležitého tlačítka. 

Pro pokračování stiskněte klávesu E nebo I. ",Černoch,Běloch, , , ,2,text_trial_type_2,img_trial_type_2,0,4,4,4,2,0,4,1,e,1,0.533381,None,0,,14,m,20,60.1899474361,IAT,2019_Nov_30_1203,
"Všimněte si prosím, že v horní části obrazovky teď jsou jen dvě kategorie - a prohodily si místa. Kategorie, která byla v minulém kole vlevo, teď je vpravo (a naopak). Využijte prosím toto cvičné kolo k tomu, abyste si zvykli na nové uspořádání. 
Pomocí kláves E a I prosím třiďte položky do čtyř skupin uvedených vlevo i vpravo. Případnou chybu prosím opravte stisknutím náležitého tlačítka. 

Pro pokračování stiskněte klávesu E nebo I. ",Černoch,Běloch, , , ,2,text_trial_type_2,img_trial_type_2,0,4,4,4,2,1,5,1,e,1,0.5166447,None,0,,14,m,20,60.1899474361,IAT,2019_Nov_30_1203,
"Všimněte si prosím, že v horní části obrazovky teď jsou jen dvě kategorie - a prohodily si místa. Kategorie, která byla v minulém kole vlevo, teď je vpravo (a naopak). Využijte prosím toto cvičné kolo k tomu, abyste si zvykli na nové uspořádání. 
Pomocí kláves E a I prosím třiďte položky do čtyř skupin uvedených vlevo i vpravo. Případnou chybu prosím opravte stisknutím náležitého tlačítka. 

Pro pokračování stiskněte klávesu E nebo I. ",Černoch,Běloch, , , ,1,text_trial_type_1,img_trial_type_1,0,4,4,4,3,0,6,0,i,1,0.6498815,None,0,,14,m,20,60.1899474361,IAT,2019_Nov_30_1203,
"Všimněte si prosím, že v horní části obrazovky teď jsou jen dvě kategorie - a prohodily si místa. Kategorie, která byla v minulém kole vlevo, teď je vpravo (a naopak). Využijte prosím toto cvičné kolo k tomu, abyste si zvykli na nové uspořádání. 
Pomocí kláves E a I prosím třiďte položky do čtyř skupin uvedených vlevo i vpravo. Případnou chybu prosím opravte stisknutím náležitého tlačítka. 

Pro pokračování stiskněte klávesu E nebo I. ",Černoch,Běloch, , , ,2,text_trial_type_2,img_trial_type_2,0,4,4,4,3,1,7,1,e,1,0.4994567,None,0,,14,m,20,60.1899474361,IAT,2019_Nov_30_1203,
"Všimněte si prosím, že v horní části obrazovky teď jsou jen dvě kategorie - a prohodily si místa. Kategorie, která byla v minulém kole vlevo, teď je vpravo (a naopak). Využijte prosím toto cvičné kolo k tomu, abyste si zvykli na nové uspořádání. 
Pomocí kláves E a I prosím třiďte položky do čtyř skupin uvedených vlevo i vpravo. Případnou chybu prosím opravte stisknutím náležitého tlačítka. 

Pro pokračování stiskněte klávesu E nebo I. ",Černoch,Běloch, , , ,1,text_trial_type_1,img_trial_type_1,0,4,4,4,4,0,8,0,i,1,0.5001156,None,0,,14,m,20,60.1899474361,IAT,2019_Nov_30_1203,
"Všimněte si prosím, že v horní části obrazovky teď jsou jen dvě kategorie - a prohodily si místa. Kategorie, která byla v minulém kole vlevo, teď je vpravo (a naopak). Využijte prosím toto cvičné kolo k tomu, abyste si zvykli na nové uspořádání. 
Pomocí kláves E a I prosím třiďte položky do čtyř skupin uvedených vlevo i vpravo. Případnou chybu prosím opravte stisknutím náležitého tlačítka. 

Pro pokračování stiskněte klávesu E nebo I. ",Černoch,Běloch, , , ,2,text_trial_type_2,img_trial_type_2,0,4,4,4,4,1,9,1,e,1,0.4998592,None,0,,14,m,20,60.1899474361,IAT,2019_Nov_30_1203,
"Všimněte si prosím, že v horní části obrazovky teď jsou jen dvě kategorie - a prohodily si místa. Kategorie, která byla v minulém kole vlevo, teď je vpravo (a naopak). Využijte prosím toto cvičné kolo k tomu, abyste si zvykli na nové uspořádání. 
Pomocí kláves E a I prosím třiďte položky do čtyř skupin uvedených vlevo i vpravo. Případnou chybu prosím opravte stisknutím náležitého tlačítka. 

Pro pokračování stiskněte klávesu E nebo I. ",Černoch,Běloch, , , ,1,text_trial_type_1,img_trial_type_1,0,4,4,4,5,0,10,0,i,1,0.5835874,None,0,,14,m,20,60.1899474361,IAT,2019_Nov_30_1203,
"Všimněte si prosím, že v horní části obrazovky teď jsou jen dvě kategorie - a prohodily si místa. Kategorie, která byla v minulém kole vlevo, teď je vpravo (a naopak). Využijte prosím toto cvičné kolo k tomu, abyste si zvykli na nové uspořádání. 
Pomocí kláves E a I prosím třiďte položky do čtyř skupin uvedených vlevo i vpravo. Případnou chybu prosím opravte stisknutím náležitého tlačítka. 

Pro pokračování stiskněte klávesu E nebo I. ",Černoch,Běloch, , , ,2,text_trial_type_2,img_trial_type_2,0,4,4,4,5,1,11,1,e,1,0.5829625,None,0,,14,m,20,60.1899474361,IAT,2019_Nov_30_1203,
"Všimněte si prosím, že v horní části obrazovky teď jsou jen dvě kategorie - a prohodily si místa. Kategorie, která byla v minulém kole vlevo, teď je vpravo (a naopak). Využijte prosím toto cvičné kolo k tomu, abyste si zvykli na nové uspořádání. 
Pomocí kláves E a I prosím třiďte položky do čtyř skupin uvedených vlevo i vpravo. Případnou chybu prosím opravte stisknutím náležitého tlačítka. 

Pro pokračování stiskněte klávesu E nebo I. ",Černoch,Běloch, , , ,1,text_trial_type_1,img_trial_type_1,0,4,4,4,6,0,12,0,i,1,0.5334876,None,0,,14,m,20,60.1899474361,IAT,2019_Nov_30_1203,
"Všimněte si prosím, že v horní části obrazovky teď jsou jen dvě kategorie - a prohodily si místa. Kategorie, která byla v minulém kole vlevo, teď je vpravo (a naopak). Využijte prosím toto cvičné kolo k tomu, abyste si zvykli na nové uspořádání. 
Pomocí kláves E a I prosím třiďte položky do čtyř skupin uvedených vlevo i vpravo. Případnou chybu prosím opravte stisknutím náležitého tlačítka. 

Pro pokračování stiskněte klávesu E nebo I. ",Černoch,Běloch, , , ,1,text_trial_type_1,img_trial_type_1,0,4,4,4,6,1,13,0,i,1,0.5680325,None,0,,14,m,20,60.1899474361,IAT,2019_Nov_30_1203,
"Všimněte si prosím, že v horní části obrazovky teď jsou jen dvě kategorie - a prohodily si místa. Kategorie, která byla v minulém kole vlevo, teď je vpravo (a naopak). Využijte prosím toto cvičné kolo k tomu, abyste si zvykli na nové uspořádání. 
Pomocí kláves E a I prosím třiďte položky do čtyř skupin uvedených vlevo i vpravo. Případnou chybu prosím opravte stisknutím náležitého tlačítka. 

Pro pokračování stiskněte klávesu E nebo I. ",Černoch,Běloch, , , ,2,text_trial_type_2,img_trial_type_2,0,4,4,4,7,0,14,1,e,1,0.6018108,None,0,,14,m,20,60.1899474361,IAT,2019_Nov_30_1203,
"Všimněte si prosím, že v horní části obrazovky teď jsou jen dvě kategorie - a prohodily si místa. Kategorie, která byla v minulém kole vlevo, teď je vpravo (a naopak). Využijte prosím toto cvičné kolo k tomu, abyste si zvykli na nové uspořádání. 
Pomocí kláves E a I prosím třiďte položky do čtyř skupin uvedených vlevo i vpravo. Případnou chybu prosím opravte stisknutím náležitého tlačítka. 

Pro pokračování stiskněte klávesu E nebo I. ",Černoch,Běloch, , , ,2,text_trial_type_2,img_trial_type_2,0,4,4,4,7,1,15,1,e,1,0.6323625,None,0,,14,m,20,60.1899474361,IAT,2019_Nov_30_1203,
"Všimněte si prosím, že v horní části obrazovky teď jsou jen dvě kategorie - a prohodily si místa. Kategorie, která byla v minulém kole vlevo, teď je vpravo (a naopak). Využijte prosím toto cvičné kolo k tomu, abyste si zvykli na nové uspořádání. 
Pomocí kláves E a I prosím třiďte položky do čtyř skupin uvedených vlevo i vpravo. Případnou chybu prosím opravte stisknutím náležitého tlačítka. 

Pro pokračování stiskněte klávesu E nebo I. ",Černoch,Běloch, , , ,1,text_trial_type_1,img_trial_type_1,0,4,4,4,8,0,16,0,i,1,0.5167829,None,0,,14,m,20,60.1899474361,IAT,2019_Nov_30_1203,
"Všimněte si prosím, že v horní části obrazovky teď jsou jen dvě kategorie - a prohodily si místa. Kategorie, která byla v minulém kole vlevo, teď je vpravo (a naopak). Využijte prosím toto cvičné kolo k tomu, abyste si zvykli na nové uspořádání. 
Pomocí kláves E a I prosím třiďte položky do čtyř skupin uvedených vlevo i vpravo. Případnou chybu prosím opravte stisknutím náležitého tlačítka. 

Pro pokračování stiskněte klávesu E nebo I. ",Černoch,Běloch, , , ,1,text_trial_type_1,img_trial_type_1,0,4,4,4,8,1,17,0,i,1,0.5338246,None,0,,14,m,20,60.1899474361,IAT,2019_Nov_30_1203,
"Všimněte si prosím, že v horní části obrazovky teď jsou jen dvě kategorie - a prohodily si místa. Kategorie, která byla v minulém kole vlevo, teď je vpravo (a naopak). Využijte prosím toto cvičné kolo k tomu, abyste si zvykli na nové uspořádání. 
Pomocí kláves E a I prosím třiďte položky do čtyř skupin uvedených vlevo i vpravo. Případnou chybu prosím opravte stisknutím náležitého tlačítka. 

Pro pokračování stiskněte klávesu E nebo I. ",Černoch,Běloch, , , ,2,text_trial_type_2,img_trial_type_2,0,4,4,4,9,0,18,1,e,1,0.6008275,None,0,,14,m,20,60.1899474361,IAT,2019_Nov_30_1203,
"Všimněte si prosím, že v horní části obrazovky teď jsou jen dvě kategorie - a prohodily si místa. Kategorie, která byla v minulém kole vlevo, teď je vpravo (a naopak). Využijte prosím toto cvičné kolo k tomu, abyste si zvykli na nové uspořádání. 
Pomocí kláves E a I prosím třiďte položky do čtyř skupin uvedených vlevo i vpravo. Případnou chybu prosím opravte stisknutím náležitého tlačítka. 

Pro pokračování stiskněte klávesu E nebo I. ",Černoch,Běloch, , , ,2,text_trial_type_2,img_trial_type_2,0,4,4,4,9,1,19,1,e,1,0.4682733,None,0,,14,m,20,60.1899474361,IAT,2019_Nov_30_1203,
"Všimněte si prosím, že v horní části obrazovky teď jsou jen dvě kategorie - a prohodily si místa. Kategorie, která byla v minulém kole vlevo, teď je vpravo (a naopak). Využijte prosím toto cvičné kolo k tomu, abyste si zvykli na nové uspořádání. 
Pomocí kláves E a I prosím třiďte položky do čtyř skupin uvedených vlevo i vpravo. Případnou chybu prosím opravte stisknutím náležitého tlačítka. 

Pro pokračování stiskněte klávesu E nebo I. ",Černoch,Běloch, , , ,1,text_trial_type_1,img_trial_type_1,0,4,4,4,10,0,20,0,i,1,0.6338217,None,0,,14,m,20,60.1899474361,IAT,2019_Nov_30_1203,
"Všimněte si prosím, že v horní části obrazovky teď jsou jen dvě kategorie - a prohodily si místa. Kategorie, která byla v minulém kole vlevo, teď je vpravo (a naopak). Využijte prosím toto cvičné kolo k tomu, abyste si zvykli na nové uspořádání. 
Pomocí kláves E a I prosím třiďte položky do čtyř skupin uvedených vlevo i vpravo. Případnou chybu prosím opravte stisknutím náležitého tlačítka. 

Pro pokračování stiskněte klávesu E nebo I. ",Černoch,Běloch, , , ,1,text_trial_type_1,img_trial_type_1,0,4,4,4,10,1,21,0,i,1,0.5846232,None,0,,14,m,20,60.1899474361,IAT,2019_Nov_30_1203,
"Všimněte si prosím, že v horní části obrazovky teď jsou jen dvě kategorie - a prohodily si místa. Kategorie, která byla v minulém kole vlevo, teď je vpravo (a naopak). Využijte prosím toto cvičné kolo k tomu, abyste si zvykli na nové uspořádání. 
Pomocí kláves E a I prosím třiďte položky do čtyř skupin uvedených vlevo i vpravo. Případnou chybu prosím opravte stisknutím náležitého tlačítka. 

Pro pokračování stiskněte klávesu E nebo I. ",Černoch,Běloch, , , ,2,text_trial_type_2,img_trial_type_2,0,4,4,4,11,0,22,1,e,1,0.533334,None,0,,14,m,20,60.1899474361,IAT,2019_Nov_30_1203,
"Všimněte si prosím, že v horní části obrazovky teď jsou jen dvě kategorie - a prohodily si místa. Kategorie, která byla v minulém kole vlevo, teď je vpravo (a naopak). Využijte prosím toto cvičné kolo k tomu, abyste si zvykli na nové uspořádání. 
Pomocí kláves E a I prosím třiďte položky do čtyř skupin uvedených vlevo i vpravo. Případnou chybu prosím opravte stisknutím náležitého tlačítka. 

Pro pokračování stiskněte klávesu E nebo I. ",Černoch,Běloch, , , ,2,text_trial_type_2,img_trial_type_2,0,4,4,4,11,1,23,1,e,1,0.6667852,None,0,,14,m,20,60.1899474361,IAT,2019_Nov_30_1203,
"Všimněte si prosím, že v horní části obrazovky teď jsou jen dvě kategorie - a prohodily si místa. Kategorie, která byla v minulém kole vlevo, teď je vpravo (a naopak). Využijte prosím toto cvičné kolo k tomu, abyste si zvykli na nové uspořádání. 
Pomocí kláves E a I prosím třiďte položky do čtyř skupin uvedených vlevo i vpravo. Případnou chybu prosím opravte stisknutím náležitého tlačítka. 

Pro pokračování stiskněte klávesu E nebo I. ",Černoch,Běloch, , , ,1,text_trial_type_1,img_trial_type_1,0,4,4,4,12,0,24,0,i,1,0.5505586,None,0,,14,m,20,60.1899474361,IAT,2019_Nov_30_1203,
"Všimněte si prosím, že v horní části obrazovky teď jsou jen dvě kategorie - a prohodily si místa. Kategorie, která byla v minulém kole vlevo, teď je vpravo (a naopak). Využijte prosím toto cvičné kolo k tomu, abyste si zvykli na nové uspořádání. 
Pomocí kláves E a I prosím třiďte položky do čtyř skupin uvedených vlevo i vpravo. Případnou chybu prosím opravte stisknutím náležitého tlačítka. 

Pro pokračování stiskněte klávesu E nebo I. ",Černoch,Běloch, , , ,2,text_trial_type_2,img_trial_type_2,0,4,4,4,12,1,25,1,e,1,0.7171078,None,0,,14,m,20,60.1899474361,IAT,2019_Nov_30_1203,
"Všimněte si prosím, že v horní části obrazovky teď jsou jen dvě kategorie - a prohodily si místa. Kategorie, která byla v minulém kole vlevo, teď je vpravo (a naopak). Využijte prosím toto cvičné kolo k tomu, abyste si zvykli na nové uspořádání. 
Pomocí kláves E a I prosím třiďte položky do čtyř skupin uvedených vlevo i vpravo. Případnou chybu prosím opravte stisknutím náležitého tlačítka. 

Pro pokračování stiskněte klávesu E nebo I. ",Černoch,Běloch, , , ,1,text_trial_type_1,img_trial_type_1,0,4,4,4,13,0,26,0,i,1,0.5335946,None,0,,14,m,20,60.1899474361,IAT,2019_Nov_30_1203,
"Všimněte si prosím, že v horní části obrazovky teď jsou jen dvě kategorie - a prohodily si místa. Kategorie, která byla v minulém kole vlevo, teď je vpravo (a naopak). Využijte prosím toto cvičné kolo k tomu, abyste si zvykli na nové uspořádání. 
Pomocí kláves E a I prosím třiďte položky do čtyř skupin uvedených vlevo i vpravo. Případnou chybu prosím opravte stisknutím náležitého tlačítka. 

Pro pokračování stiskněte klávesu E nebo I. ",Černoch,Běloch, , , ,1,text_trial_type_1,img_trial_type_1,0,4,4,4,13,1,27,0,i,1,0.6594917,None,0,,14,m,20,60.1899474361,IAT,2019_Nov_30_1203,
"Všimněte si prosím, že v horní části obrazovky teď jsou jen dvě kategorie - a prohodily si místa. Kategorie, která byla v minulém kole vlevo, teď je vpravo (a naopak). Využijte prosím toto cvičné kolo k tomu, abyste si zvykli na nové uspořádání. 
Pomocí kláves E a I prosím třiďte položky do čtyř skupin uvedených vlevo i vpravo. Případnou chybu prosím opravte stisknutím náležitého tlačítka. 

Pro pokračování stiskněte klávesu E nebo I. ",Černoch,Běloch, , , ,2,text_trial_type_2,img_trial_type_2,0,4,4,4,14,0,28,1,e,1,0.5827262,None,0,,14,m,20,60.1899474361,IAT,2019_Nov_30_1203,
"Všimněte si prosím, že v horní části obrazovky teď jsou jen dvě kategorie - a prohodily si místa. Kategorie, která byla v minulém kole vlevo, teď je vpravo (a naopak). Využijte prosím toto cvičné kolo k tomu, abyste si zvykli na nové uspořádání. 
Pomocí kláves E a I prosím třiďte položky do čtyř skupin uvedených vlevo i vpravo. Případnou chybu prosím opravte stisknutím náležitého tlačítka. 

Pro pokračování stiskněte klávesu E nebo I. ",Černoch,Běloch, , , ,1,text_trial_type_1,img_trial_type_1,0,4,4,4,14,1,29,0,i,1,0.5996697,None,0,,14,m,20,60.1899474361,IAT,2019_Nov_30_1203,
"Všimněte si prosím, že v horní části obrazovky teď jsou jen dvě kategorie - a prohodily si místa. Kategorie, která byla v minulém kole vlevo, teď je vpravo (a naopak). Využijte prosím toto cvičné kolo k tomu, abyste si zvykli na nové uspořádání. 
Pomocí kláves E a I prosím třiďte položky do čtyř skupin uvedených vlevo i vpravo. Případnou chybu prosím opravte stisknutím náležitého tlačítka. 

Pro pokračování stiskněte klávesu E nebo I. ",Černoch,Běloch, , , ,2,text_trial_type_2,img_trial_type_2,0,4,4,4,15,0,30,1,e,1,0.4838322,None,0,,14,m,20,60.1899474361,IAT,2019_Nov_30_1203,
"Všimněte si prosím, že v horní části obrazovky teď jsou jen dvě kategorie - a prohodily si místa. Kategorie, která byla v minulém kole vlevo, teď je vpravo (a naopak). Využijte prosím toto cvičné kolo k tomu, abyste si zvykli na nové uspořádání. 
Pomocí kláves E a I prosím třiďte položky do čtyř skupin uvedených vlevo i vpravo. Případnou chybu prosím opravte stisknutím náležitého tlačítka. 

Pro pokračování stiskněte klávesu E nebo I. ",Černoch,Běloch, , , ,1,text_trial_type_1,img_trial_type_1,0,4,4,4,15,1,31,0,i,1,0.5008122,None,0,,14,m,20,60.1899474361,IAT,2019_Nov_30_1203,
"Všimněte si prosím, že v horní části obrazovky teď jsou jen dvě kategorie - a prohodily si místa. Kategorie, která byla v minulém kole vlevo, teď je vpravo (a naopak). Využijte prosím toto cvičné kolo k tomu, abyste si zvykli na nové uspořádání. 
Pomocí kláves E a I prosím třiďte položky do čtyř skupin uvedených vlevo i vpravo. Případnou chybu prosím opravte stisknutím náležitého tlačítka. 

Pro pokračování stiskněte klávesu E nebo I. ",Černoch,Běloch, , , ,2,text_trial_type_2,img_trial_type_2,0,4,4,4,16,0,32,1,e,1,0.5338283,None,0,,14,m,20,60.1899474361,IAT,2019_Nov_30_1203,
"Všimněte si prosím, že v horní části obrazovky teď jsou jen dvě kategorie - a prohodily si místa. Kategorie, která byla v minulém kole vlevo, teď je vpravo (a naopak). Využijte prosím toto cvičné kolo k tomu, abyste si zvykli na nové uspořádání. 
Pomocí kláves E a I prosím třiďte položky do čtyř skupin uvedených vlevo i vpravo. Případnou chybu prosím opravte stisknutím náležitého tlačítka. 

Pro pokračování stiskněte klávesu E nebo I. ",Černoch,Běloch, , , ,2,text_trial_type_2,img_trial_type_2,0,4,4,4,16,1,33,1,e,1,0.5508645,None,0,,14,m,20,60.1899474361,IAT,2019_Nov_30_1203,
"Všimněte si prosím, že v horní části obrazovky teď jsou jen dvě kategorie - a prohodily si místa. Kategorie, která byla v minulém kole vlevo, teď je vpravo (a naopak). Využijte prosím toto cvičné kolo k tomu, abyste si zvykli na nové uspořádání. 
Pomocí kláves E a I prosím třiďte položky do čtyř skupin uvedených vlevo i vpravo. Případnou chybu prosím opravte stisknutím náležitého tlačítka. 

Pro pokračování stiskněte klávesu E nebo I. ",Černoch,Běloch, , , ,2,text_trial_type_2,img_trial_type_2,0,4,4,4,17,0,34,1,e,1,0.4997208,None,0,,14,m,20,60.1899474361,IAT,2019_Nov_30_1203,
"Všimněte si prosím, že v horní části obrazovky teď jsou jen dvě kategorie - a prohodily si místa. Kategorie, která byla v minulém kole vlevo, teď je vpravo (a naopak). Využijte prosím toto cvičné kolo k tomu, abyste si zvykli na nové uspořádání. 
Pomocí kláves E a I prosím třiďte položky do čtyř skupin uvedených vlevo i vpravo. Případnou chybu prosím opravte stisknutím náležitého tlačítka. 

Pro pokračování stiskněte klávesu E nebo I. ",Černoch,Běloch, , , ,1,text_trial_type_1,img_trial_type_1,0,4,4,4,17,1,35,0,i,1,0.5336187,None,0,,14,m,20,60.1899474361,IAT,2019_Nov_30_1203,
"Všimněte si prosím, že v horní části obrazovky teď jsou jen dvě kategorie - a prohodily si místa. Kategorie, která byla v minulém kole vlevo, teď je vpravo (a naopak). Využijte prosím toto cvičné kolo k tomu, abyste si zvykli na nové uspořádání. 
Pomocí kláves E a I prosím třiďte položky do čtyř skupin uvedených vlevo i vpravo. Případnou chybu prosím opravte stisknutím náležitého tlačítka. 

Pro pokračování stiskněte klávesu E nebo I. ",Černoch,Běloch, , , ,2,text_trial_type_2,img_trial_type_2,0,4,4,4,18,0,36,1,e,1,0.5669331,None,0,,14,m,20,60.1899474361,IAT,2019_Nov_30_1203,
"Všimněte si prosím, že v horní části obrazovky teď jsou jen dvě kategorie - a prohodily si místa. Kategorie, která byla v minulém kole vlevo, teď je vpravo (a naopak). Využijte prosím toto cvičné kolo k tomu, abyste si zvykli na nové uspořádání. 
Pomocí kláves E a I prosím třiďte položky do čtyř skupin uvedených vlevo i vpravo. Případnou chybu prosím opravte stisknutím náležitého tlačítka. 

Pro pokračování stiskněte klávesu E nebo I. ",Černoch,Běloch, , , ,2,text_trial_type_2,img_trial_type_2,0,4,4,4,18,1,37,1,e,1,0.4830856,None,0,,14,m,20,60.1899474361,IAT,2019_Nov_30_1203,
"Všimněte si prosím, že v horní části obrazovky teď jsou jen dvě kategorie - a prohodily si místa. Kategorie, která byla v minulém kole vlevo, teď je vpravo (a naopak). Využijte prosím toto cvičné kolo k tomu, abyste si zvykli na nové uspořádání. 
Pomocí kláves E a I prosím třiďte položky do čtyř skupin uvedených vlevo i vpravo. Případnou chybu prosím opravte stisknutím náležitého tlačítka. 

Pro pokračování stiskněte klávesu E nebo I. ",Černoch,Běloch, , , ,1,text_trial_type_1,img_trial_type_1,0,4,4,4,19,0,38,0,i,1,0.5006294,None,0,,14,m,20,60.1899474361,IAT,2019_Nov_30_1203,
"Všimněte si prosím, že v horní části obrazovky teď jsou jen dvě kategorie - a prohodily si místa. Kategorie, která byla v minulém kole vlevo, teď je vpravo (a naopak). Využijte prosím toto cvičné kolo k tomu, abyste si zvykli na nové uspořádání. 
Pomocí kláves E a I prosím třiďte položky do čtyř skupin uvedených vlevo i vpravo. Případnou chybu prosím opravte stisknutím náležitého tlačítka. 

Pro pokračování stiskněte klávesu E nebo I. ",Černoch,Běloch, , , ,1,text_trial_type_1,img_trial_type_1,0,4,4,4,19,1,39,0,i,1,0.5346425,None,0,,14,m,20,60.1899474361,IAT,2019_Nov_30_1203,
"Nahoře teď jsou zobrazeny čtyři kategorie. Zařaďte prosím každou položku do její náležité kategorie. 

Pomocí kláves E a I prosím třiďte položky do čtyř skupin uvedených vlevo i vpravo. Případnou chybu prosím opravte stisknutím náležitého tlačítka. 

Pro pokračování stiskněte klávesu E nebo I. ",Černoch,Běloch,Negativní,Pozitivní,nebo,3,text_trial_type_3,img_trial_type_3,0,5,5,5,0,0,0,2,i,1,1.0501278,None,0,,14,m,20,60.1899474361,IAT,2019_Nov_30_1203,
"Nahoře teď jsou zobrazeny čtyři kategorie. Zařaďte prosím každou položku do její náležité kategorie. 

Pomocí kláves E a I prosím třiďte položky do čtyř skupin uvedených vlevo i vpravo. Případnou chybu prosím opravte stisknutím náležitého tlačítka. 

Pro pokračování stiskněte klávesu E nebo I. ",Černoch,Běloch,Negativní,Pozitivní,nebo,1,text_trial_type_1,img_trial_type_1,0,5,5,5,0,1,1,0,i,1,0.6180779,None,0,,14,m,20,60.1899474361,IAT,2019_Nov_30_1203,
"Nahoře teď jsou zobrazeny čtyři kategorie. Zařaďte prosím každou položku do její náležité kategorie. 

Pomocí kláves E a I prosím třiďte položky do čtyř skupin uvedených vlevo i vpravo. Případnou chybu prosím opravte stisknutím náležitého tlačítka. 

Pro pokračování stiskněte klávesu E nebo I. ",Černoch,Běloch,Negativní,Pozitivní,nebo,4,text_trial_type_4,img_trial_type_4,0,5,5,5,0,2,2,3,e,1,0.6995512,None,0,,14,m,20,60.1899474361,IAT,2019_Nov_30_1203,
"Nahoře teď jsou zobrazeny čtyři kategorie. Zařaďte prosím každou položku do její náležité kategorie. 

Pomocí kláves E a I prosím třiďte položky do čtyř skupin uvedených vlevo i vpravo. Případnou chybu prosím opravte stisknutím náležitého tlačítka. 

Pro pokračování stiskněte klávesu E nebo I. ",Černoch,Běloch,Negativní,Pozitivní,nebo,2,text_trial_type_2,img_trial_type_2,0,5,5,5,0,3,3,1,e,1,0.583164,None,0,,14,m,20,60.1899474361,IAT,2019_Nov_30_1203,
"Nahoře teď jsou zobrazeny čtyři kategorie. Zařaďte prosím každou položku do její náležité kategorie. 

Pomocí kláves E a I prosím třiďte položky do čtyř skupin uvedených vlevo i vpravo. Případnou chybu prosím opravte stisknutím náležitého tlačítka. 

Pro pokračování stiskněte klávesu E nebo I. ",Černoch,Běloch,Negativní,Pozitivní,nebo,1,text_trial_type_1,img_trial_type_1,0,5,5,5,1,0,4,0,i,1,0.6668841,None,0,,14,m,20,60.1899474361,IAT,2019_Nov_30_1203,
"Nahoře teď jsou zobrazeny čtyři kategorie. Zařaďte prosím každou položku do její náležité kategorie. 

Pomocí kláves E a I prosím třiďte položky do čtyř skupin uvedených vlevo i vpravo. Případnou chybu prosím opravte stisknutím náležitého tlačítka. 

Pro pokračování stiskněte klávesu E nebo I. ",Černoch,Běloch,Negativní,Pozitivní,nebo,4,text_trial_type_4,img_trial_type_4,0,5,5,5,1,1,5,3,e,1,0.832714,None,0,,14,m,20,60.1899474361,IAT,2019_Nov_30_1203,
"Nahoře teď jsou zobrazeny čtyři kategorie. Zařaďte prosím každou položku do její náležité kategorie. 

Pomocí kláves E a I prosím třiďte položky do čtyř skupin uvedených vlevo i vpravo. Případnou chybu prosím opravte stisknutím náležitého tlačítka. 

Pro pokračování stiskněte klávesu E nebo I. ",Černoch,Běloch,Negativní,Pozitivní,nebo,2,text_trial_type_2,img_trial_type_2,0,5,5,5,1,2,6,1,e,1,0.6003661,None,0,,14,m,20,60.1899474361,IAT,2019_Nov_30_1203,
"Nahoře teď jsou zobrazeny čtyři kategorie. Zařaďte prosím každou položku do její náležité kategorie. 

Pomocí kláves E a I prosím třiďte položky do čtyř skupin uvedených vlevo i vpravo. Případnou chybu prosím opravte stisknutím náležitého tlačítka. 

Pro pokračování stiskněte klávesu E nebo I. ",Černoch,Běloch,Negativní,Pozitivní,nebo,1,text_trial_type_1,img_trial_type_1,0,5,5,5,1,3,7,0,i,1,0.6338787,None,0,,14,m,20,60.1899474361,IAT,2019_Nov_30_1203,
"Nahoře teď jsou zobrazeny čtyři kategorie. Zařaďte prosím každou položku do její náležité kategorie. 

Pomocí kláves E a I prosím třiďte položky do čtyř skupin uvedených vlevo i vpravo. Případnou chybu prosím opravte stisknutím náležitého tlačítka. 

Pro pokračování stiskněte klávesu E nebo I. ",Černoch,Běloch,Negativní,Pozitivní,nebo,3,text_trial_type_3,img_trial_type_3,0,5,5,5,2,0,8,2,i,1,0.5670634,None,0,,14,m,20,60.1899474361,IAT,2019_Nov_30_1203,
"Nahoře teď jsou zobrazeny čtyři kategorie. Zařaďte prosím každou položku do její náležité kategorie. 

Pomocí kláves E a I prosím třiďte položky do čtyř skupin uvedených vlevo i vpravo. Případnou chybu prosím opravte stisknutím náležitého tlačítka. 

Pro pokračování stiskněte klávesu E nebo I. ",Černoch,Běloch,Negativní,Pozitivní,nebo,4,text_trial_type_4,img_trial_type_4,0,5,5,5,2,1,9,3,e,1,0.7002785,None,0,,14,m,20,60.1899474361,IAT,2019_Nov_30_1203,
"Nahoře teď jsou zobrazeny čtyři kategorie. Zařaďte prosím každou položku do její náležité kategorie. 

Pomocí kláves E a I prosím třiďte položky do čtyř skupin uvedených vlevo i vpravo. Případnou chybu prosím opravte stisknutím náležitého tlačítka. 

Pro pokračování stiskněte klávesu E nebo I. ",Černoch,Běloch,Negativní,Pozitivní,nebo,1,text_trial_type_1,img_trial_type_1,0,5,5,5,2,2,10,0,i,1,0.5995132,None,0,,14,m,20,60.1899474361,IAT,2019_Nov_30_1203,
"Nahoře teď jsou zobrazeny čtyři kategorie. Zařaďte prosím každou položku do její náležité kategorie. 

Pomocí kláves E a I prosím třiďte položky do čtyř skupin uvedených vlevo i vpravo. Případnou chybu prosím opravte stisknutím náležitého tlačítka. 

Pro pokračování stiskněte klávesu E nebo I. ",Černoch,Běloch,Negativní,Pozitivní,nebo,2,text_trial_type_2,img_trial_type_2,0,5,5,5,2,3,11,1,e,1,0.5668165,None,0,,14,m,20,60.1899474361,IAT,2019_Nov_30_1203,
"Nahoře teď jsou zobrazeny čtyři kategorie. Zařaďte prosím každou položku do její náležité kategorie. 

Pomocí kláves E a I prosím třiďte položky do čtyř skupin uvedených vlevo i vpravo. Případnou chybu prosím opravte stisknutím náležitého tlačítka. 

Pro pokračování stiskněte klávesu E nebo I. ",Černoch,Běloch,Negativní,Pozitivní,nebo,3,text_trial_type_3,img_trial_type_3,0,5,5,5,3,0,12,2,i,1,1.0171637,None,0,,14,m,20,60.1899474361,IAT,2019_Nov_30_1203,
"Nahoře teď jsou zobrazeny čtyři kategorie. Zařaďte prosím každou položku do její náležité kategorie. 

Pomocí kláves E a I prosím třiďte položky do čtyř skupin uvedených vlevo i vpravo. Případnou chybu prosím opravte stisknutím náležitého tlačítka. 

Pro pokračování stiskněte klávesu E nebo I. ",Černoch,Běloch,Negativní,Pozitivní,nebo,2,text_trial_type_2,img_trial_type_2,0,5,5,5,3,1,13,1,e,1,0.5496357,None,0,,14,m,20,60.1899474361,IAT,2019_Nov_30_1203,
"Nahoře teď jsou zobrazeny čtyři kategorie. Zařaďte prosím každou položku do její náležité kategorie. 

Pomocí kláves E a I prosím třiďte položky do čtyř skupin uvedených vlevo i vpravo. Případnou chybu prosím opravte stisknutím náležitého tlačítka. 

Pro pokračování stiskněte klávesu E nebo I. ",Černoch,Běloch,Negativní,Pozitivní,nebo,1,text_trial_type_1,img_trial_type_1,0,5,5,5,3,2,14,0,i,1,0.5502496,None,0,,14,m,20,60.1899474361,IAT,2019_Nov_30_1203,
"Nahoře teď jsou zobrazeny čtyři kategorie. Zařaďte prosím každou položku do její náležité kategorie. 

Pomocí kláves E a I prosím třiďte položky do čtyř skupin uvedených vlevo i vpravo. Případnou chybu prosím opravte stisknutím náležitého tlačítka. 

Pro pokračování stiskněte klávesu E nebo I. ",Černoch,Běloch,Negativní,Pozitivní,nebo,3,text_trial_type_3,img_trial_type_3,0,5,5,5,3,3,15,2,i,1,0.5019521,None,0,,14,m,20,60.1899474361,IAT,2019_Nov_30_1203,
"Nahoře teď jsou zobrazeny čtyři kategorie. Zařaďte prosím každou položku do její náležité kategorie. 

Pomocí kláves E a I prosím třiďte položky do čtyř skupin uvedených vlevo i vpravo. Případnou chybu prosím opravte stisknutím náležitého tlačítka. 

Pro pokračování stiskněte klávesu E nebo I. ",Černoch,Běloch,Negativní,Pozitivní,nebo,4,text_trial_type_4,img_trial_type_4,0,5,5,5,4,0,16,3,e,1,0.5173129,None,0,,14,m,20,60.1899474361,IAT,2019_Nov_30_1203,
"Nahoře teď jsou zobrazeny čtyři kategorie. Zařaďte prosím každou položku do její náležité kategorie. 

Pomocí kláves E a I prosím třiďte položky do čtyř skupin uvedených vlevo i vpravo. Případnou chybu prosím opravte stisknutím náležitého tlačítka. 

Pro pokračování stiskněte klávesu E nebo I. ",Černoch,Běloch,Negativní,Pozitivní,nebo,2,text_trial_type_2,img_trial_type_2,0,5,5,5,4,1,17,1,e,1,0.6325798,None,0,,14,m,20,60.1899474361,IAT,2019_Nov_30_1203,
"Nahoře teď jsou zobrazeny čtyři kategorie. Zařaďte prosím každou položku do její náležité kategorie. 

Pomocí kláves E a I prosím třiďte položky do čtyř skupin uvedených vlevo i vpravo. Případnou chybu prosím opravte stisknutím náležitého tlačítka. 

Pro pokračování stiskněte klávesu E nebo I. ",Černoch,Běloch,Negativní,Pozitivní,nebo,3,text_trial_type_3,img_trial_type_3,0,5,5,5,4,2,18,2,i,1,0.4997914,None,0,,14,m,20,60.1899474361,IAT,2019_Nov_30_1203,
"Nahoře teď jsou zobrazeny čtyři kategorie. Zařaďte prosím každou položku do její náležité kategorie. 

Pomocí kláves E a I prosím třiďte položky do čtyř skupin uvedených vlevo i vpravo. Případnou chybu prosím opravte stisknutím náležitého tlačítka. 

Pro pokračování stiskněte klávesu E nebo I. ",Černoch,Běloch,Negativní,Pozitivní,nebo,4,text_trial_type_4,img_trial_type_4,0,5,5,5,4,3,19,3,e,1,0.5505788,None,0,,14,m,20,60.1899474361,IAT,2019_Nov_30_1203,
"Mockrát děkujeme za Vaši spolupráci! Čeká Vás poslední kolo. Uspořádání kategorií je stejné jako v kole minulém. 

Pomocí kláves E a I prosím třiďte položky do čtyř skupin uvedených vlevo i vpravo. Případnou chybu prosím opravte stisknutím náležitého tlačítka. 

Pro pokračování stiskněte klávesu E nebo I. ",Černoch,Běloch,Negativní,Pozitivní,nebo ,2,text_trial_type_2,img_trial_type_2,0,6,6,6,0,0,0,1,e,1,0.9997055,None,0,,14,m,20,60.1899474361,IAT,2019_Nov_30_1203,
"Mockrát děkujeme za Vaši spolupráci! Čeká Vás poslední kolo. Uspořádání kategorií je stejné jako v kole minulém. 

Pomocí kláves E a I prosím třiďte položky do čtyř skupin uvedených vlevo i vpravo. Případnou chybu prosím opravte stisknutím náležitého tlačítka. 

Pro pokračování stiskněte klávesu E nebo I. ",Černoch,Běloch,Negativní,Pozitivní,nebo ,1,text_trial_type_1,img_trial_type_1,0,6,6,6,0,1,1,0,i,1,0.5324823,None,0,,14,m,20,60.1899474361,IAT,2019_Nov_30_1203,
"Mockrát děkujeme za Vaši spolupráci! Čeká Vás poslední kolo. Uspořádání kategorií je stejné jako v kole minulém. 

Pomocí kláves E a I prosím třiďte položky do čtyř skupin uvedených vlevo i vpravo. Případnou chybu prosím opravte stisknutím náležitého tlačítka. 

Pro pokračování stiskněte klávesu E nebo I. ",Černoch,Běloch,Negativní,Pozitivní,nebo ,1,text_trial_type_1,img_trial_type_1,0,6,6,6,0,2,2,0,i,1,0.5183938,None,0,,14,m,20,60.1899474361,IAT,2019_Nov_30_1203,
"Mockrát děkujeme za Vaši spolupráci! Čeká Vás poslední kolo. Uspořádání kategorií je stejné jako v kole minulém. 

Pomocí kláves E a I prosím třiďte položky do čtyř skupin uvedených vlevo i vpravo. Případnou chybu prosím opravte stisknutím náležitého tlačítka. 

Pro pokračování stiskněte klávesu E nebo I. ",Černoch,Běloch,Negativní,Pozitivní,nebo ,1,text_trial_type_1,img_trial_type_1,0,6,6,6,0,3,3,0,i,1,0.6662095,None,0,,14,m,20,60.1899474361,IAT,2019_Nov_30_1203,
"Mockrát děkujeme za Vaši spolupráci! Čeká Vás poslední kolo. Uspořádání kategorií je stejné jako v kole minulém. 

Pomocí kláves E a I prosím třiďte položky do čtyř skupin uvedených vlevo i vpravo. Případnou chybu prosím opravte stisknutím náležitého tlačítka. 

Pro pokračování stiskněte klávesu E nebo I. ",Černoch,Běloch,Negativní,Pozitivní,nebo ,3,text_trial_type_3,img_trial_type_3,0,6,6,6,1,0,4,2,i,1,0.7669378,None,0,,14,m,20,60.1899474361,IAT,2019_Nov_30_1203,
"Mockrát děkujeme za Vaši spolupráci! Čeká Vás poslední kolo. Uspořádání kategorií je stejné jako v kole minulém. 

Pomocí kláves E a I prosím třiďte položky do čtyř skupin uvedených vlevo i vpravo. Případnou chybu prosím opravte stisknutím náležitého tlačítka. 

Pro pokračování stiskněte klávesu E nebo I. ",Černoch,Běloch,Negativní,Pozitivní,nebo ,4,text_trial_type_4,img_trial_type_4,0,6,6,6,1,1,5,3,e,1,0.5338829,None,0,,14,m,20,60.1899474361,IAT,2019_Nov_30_1203,
"Mockrát děkujeme za Vaši spolupráci! Čeká Vás poslední kolo. Uspořádání kategorií je stejné jako v kole minulém. 

Pomocí kláves E a I prosím třiďte položky do čtyř skupin uvedených vlevo i vpravo. Případnou chybu prosím opravte stisknutím náležitého tlačítka. 

Pro pokračování stiskněte klávesu E nebo I. ",Černoch,Běloch,Negativní,Pozitivní,nebo ,4,text_trial_type_4,img_trial_type_4,0,6,6,6,1,2,6,3,e,1,0.5167865,None,0,,14,m,20,60.1899474361,IAT,2019_Nov_30_1203,
"Mockrát děkujeme za Vaši spolupráci! Čeká Vás poslední kolo. Uspořádání kategorií je stejné jako v kole minulém. 

Pomocí kláves E a I prosím třiďte položky do čtyř skupin uvedených vlevo i vpravo. Případnou chybu prosím opravte stisknutím náležitého tlačítka. 

Pro pokračování stiskněte klávesu E nebo I. ",Černoch,Běloch,Negativní,Pozitivní,nebo ,1,text_trial_type_1,img_trial_type_1,0,6,6,6,1,3,7,0,i,1,0.5495126,None,0,,14,m,20,60.1899474361,IAT,2019_Nov_30_1203,
"Mockrát děkujeme za Vaši spolupráci! Čeká Vás poslední kolo. Uspořádání kategorií je stejné jako v kole minulém. 

Pomocí kláves E a I prosím třiďte položky do čtyř skupin uvedených vlevo i vpravo. Případnou chybu prosím opravte stisknutím náležitého tlačítka. 

Pro pokračování stiskněte klávesu E nebo I. ",Černoch,Běloch,Negativní,Pozitivní,nebo ,3,text_trial_type_3,img_trial_type_3,0,6,6,6,2,0,8,2,i,1,0.5334732,None,0,,14,m,20,60.1899474361,IAT,2019_Nov_30_1203,
"Mockrát děkujeme za Vaši spolupráci! Čeká Vás poslední kolo. Uspořádání kategorií je stejné jako v kole minulém. 

Pomocí kláves E a I prosím třiďte položky do čtyř skupin uvedených vlevo i vpravo. Případnou chybu prosím opravte stisknutím náležitého tlačítka. 

Pro pokračování stiskněte klávesu E nebo I. ",Černoch,Běloch,Negativní,Pozitivní,nebo ,1,text_trial_type_1,img_trial_type_1,0,6,6,6,2,1,9,0,i,1,0.4836725,None,0,,14,m,20,60.1899474361,IAT,2019_Nov_30_1203,
"Mockrát děkujeme za Vaši spolupráci! Čeká Vás poslední kolo. Uspořádání kategorií je stejné jako v kole minulém. 

Pomocí kláves E a I prosím třiďte položky do čtyř skupin uvedených vlevo i vpravo. Případnou chybu prosím opravte stisknutím náležitého tlačítka. 

Pro pokračování stiskněte klávesu E nebo I. ",Černoch,Běloch,Negativní,Pozitivní,nebo ,4,text_trial_type_4,img_trial_type_4,0,6,6,6,2,2,10,3,e,1,0.632946,None,0,,14,m,20,60.1899474361,IAT,2019_Nov_30_1203,
"Mockrát děkujeme za Vaši spolupráci! Čeká Vás poslední kolo. Uspořádání kategorií je stejné jako v kole minulém. 

Pomocí kláves E a I prosím třiďte položky do čtyř skupin uvedených vlevo i vpravo. Případnou chybu prosím opravte stisknutím náležitého tlačítka. 

Pro pokračování stiskněte klávesu E nebo I. ",Černoch,Běloch,Negativní,Pozitivní,nebo ,3,text_trial_type_3,img_trial_type_3,0,6,6,6,2,3,11,2,i,1,0.5836384,None,0,,14,m,20,60.1899474361,IAT,2019_Nov_30_1203,
"Mockrát děkujeme za Vaši spolupráci! Čeká Vás poslední kolo. Uspořádání kategorií je stejné jako v kole minulém. 

Pomocí kláves E a I prosím třiďte položky do čtyř skupin uvedených vlevo i vpravo. Případnou chybu prosím opravte stisknutím náležitého tlačítka. 

Pro pokračování stiskněte klávesu E nebo I. ",Černoch,Běloch,Negativní,Pozitivní,nebo ,1,text_trial_type_1,img_trial_type_1,0,6,6,6,3,0,12,0,i,1,0.6170174,None,0,,14,m,20,60.1899474361,IAT,2019_Nov_30_1203,
"Mockrát děkujeme za Vaši spolupráci! Čeká Vás poslední kolo. Uspořádání kategorií je stejné jako v kole minulém. 

Pomocí kláves E a I prosím třiďte položky do čtyř skupin uvedených vlevo i vpravo. Případnou chybu prosím opravte stisknutím náležitého tlačítka. 

Pro pokračování stiskněte klávesu E nebo I. ",Černoch,Běloch,Negativní,Pozitivní,nebo ,3,text_trial_type_3,img_trial_type_3,0,6,6,6,3,1,13,2,i,1,0.5007433,None,0,,14,m,20,60.1899474361,IAT,2019_Nov_30_1203,
"Mockrát děkujeme za Vaši spolupráci! Čeká Vás poslední kolo. Uspořádání kategorií je stejné jako v kole minulém. 

Pomocí kláves E a I prosím třiďte položky do čtyř skupin uvedených vlevo i vpravo. Případnou chybu prosím opravte stisknutím náležitého tlačítka. 

Pro pokračování stiskněte klávesu E nebo I. ",Černoch,Běloch,Negativní,Pozitivní,nebo ,2,text_trial_type_2,img_trial_type_2,0,6,6,6,3,2,14,1,e,1,0.6007259,None,0,,14,m,20,60.1899474361,IAT,2019_Nov_30_1203,
